AX,AY,AZ,GX,GY,GZ,Label,Person
-0.240240173,0.039758431,-9.430431001,-0.597996241,0.926326983,1.266560359,Chew,1P
-0.264643536,0.00943635,-9.488502914,-0.654908445,-0.378815928,0.932916726,Chew,1P
-0.275581622,0.028231249,-9.510082508,-0.867370816,0.622889088,1.435680895,Chew,1P
-0.28143576,0.090908715,-9.483387029,-0.816123791,4.046129058,2.194893297,Chew,1P
-0.289355071,0.130115189,-9.435548469,0.08469048,6.852677347,1.699212657,Chew,1P
-0.277218756,0.085303836,-9.415371999,1.542566704,5.443503117,-0.392814878,Chew,1P
-0.225801537,-0.002461829,-9.445177993,2.20540538,0.420892951,-2.182910654,Chew,1P
-0.171971417,-0.003138791,-9.496071103,1.094438465,-3.138784968,-1.487114263,Chew,1P
-0.179977059,0.147148876,-9.526268216,-0.962410327,-1.848263001,1.321672047,Chew,1P
-0.252056214,0.336476607,-9.529682936,-2.079206901,1.742991295,3.619111186,Chew,1P
-0.314498856,0.389453721,-9.523178255,-1.51590689,3.237014862,3.780641967,Chew,1P
-0.302987491,0.271921842,-9.503810462,-0.348094117,2.329683877,2.775743343,Chew,1P
-0.228067911,0.117241882,-9.459162172,0.178770346,1.612942627,2.119944497,Chew,1P
-0.162611853,0.055127494,-9.421826415,0.117731113,1.278022218,1.697037688,Chew,1P
-0.194126233,0.078852247,-9.467775763,0.252723609,-0.914804857,0.651809472,Chew,1P
-0.361483073,0.096172393,-9.619818513,0.707272678,-4.490247604,-0.549565679,Chew,1P
-0.59537373,0.057726352,-9.773443751,0.794965082,-5.301191905,-0.440896563,Chew,1P
-0.744204736,-0.002220675,-9.781593618,0.112854399,-1.428607873,1.238156955,Chew,1P
-0.700602432,-0.024417053,-9.625194732,-0.813175677,3.375092132,2.993736161,Chew,1P
-0.496522183,0.012104973,-9.440926662,-1.182765651,4.606357581,3.514168785,Chew,1P
-0.269311288,0.072336639,-9.356942649,-0.876932644,2.744811093,3.084582649,Chew,1P
-0.167190772,0.089374501,-9.365862251,-0.404019115,1.476910534,2.546717351,Chew,1P
-0.280618738,0.023894881,-9.404328871,-0.043946027,2.107138292,1.743783409,Chew,1P
-0.584684664,-0.082154714,-9.483944621,0.368721301,2.585173945,0.043113513,Chew,1P
-0.905200026,-0.133815586,-9.641379203,0.663425049,1.552140339,-1.89500112,Chew,1P
-1.00868729,-0.085650203,-9.792628569,0.13505253,0.498137065,-2.239879364,Chew,1P
-0.803831361,0.005711524,-9.777031091,-1.316661232,0.865716934,-0.38260067,Chew,1P
-0.445847521,0.051566023,-9.579608566,-2.572344267,1.563169705,1.950249934,Chew,1P
-0.194566789,0.033333539,-9.383572268,-2.513573489,1.378693655,2.818891167,Chew,1P
-0.162021794,0.01002321,-9.335501222,-1.29859241,1.442552382,2.321370782,Chew,1P
-0.236960063,0.032383269,-9.371720457,0.116233498,2.623506469,1.715156424,Chew,1P
-0.275932189,0.07825794,-9.373197971,1.110216735,2.72253185,1.240018575,Chew,1P
-0.299354604,0.084067204,-9.387058232,1.447223049,-0.326723011,0.257980654,Chew,1P
-0.407748856,0.021478526,-9.536222929,0.745362048,-3.926855963,-0.894344979,Chew,1P
-0.557830785,-0.074614768,-9.757598287,-1.167119157,-3.556260703,-0.845604568,Chew,1P
-0.580516846,-0.147346807,-9.823932625,-3.384861634,0.322808538,0.707446618,Chew,1P
-0.432933233,-0.170609804,-9.653016987,-4.283393411,2.566397683,2.182720692,Chew,1P
-0.277154303,-0.154574462,-9.424660329,-3.139082111,1.125737921,2.149975032,Chew,1P
-0.253965311,-0.113158236,-9.332562668,-0.907095262,-0.198215584,1.178928893,Chew,1P
-0.30491364,-0.051547431,-9.364292071,0.892199775,1.504449651,0.695668107,Chew,1P
-0.306447297,0.012522144,-9.405981856,1.609836457,3.016426868,0.831301011,Chew,1P
-0.289943255,0.045980265,-9.442984737,1.52537389,-0.172892561,0.697425569,Chew,1P
-0.393259135,0.038669324,-9.532377863,0.97861797,-6.143697942,0.306792547,Chew,1P
-0.612695499,0.02175024,-9.640845751,0.027094341,-7.988134238,0.643695289,Chew,1P
-0.75123526,0.019710636,-9.657385121,-1.162842282,-3.067208334,1.745619507,Chew,1P
-0.664952205,0.006978555,-9.564951828,-2.130210525,3.402094074,2.248550594,Chew,1P
-0.445975481,-0.047082137,-9.462161971,-2.476149572,5.583777653,1.423743993,Chew,1P
-0.28543122,-0.112719865,-9.387418371,-2.128956231,3.778260373,0.450521932,Chew,1P
-0.249517813,-0.127186624,-9.266296707,-1.158639913,1.355377122,0.804489968,Chew,1P
-0.29034229,-0.071794786,-9.102154342,0.345105686,-1.107796552,2.186051828,Chew,1P
-0.399485354,0.01397246,-9.066414751,1.879681997,-4.448734824,3.021305551,Chew,1P
-0.603559119,0.075692606,-9.269032661,2.311007815,-6.238065522,2.624789091,Chew,1P
-0.822867823,0.071457947,-9.557669221,0.80035072,-2.814835449,1.836167505,Chew,1P
-0.882306691,-0.020403983,-9.690433337,-1.938267847,4.131520648,1.495737374,Chew,1P
-0.712135879,-0.173825145,-9.62267599,-3.979429732,8.028346117,1.353888455,Chew,1P
-0.447011697,-0.293896242,-9.496956414,-4.018620928,5.885574724,0.956984777,Chew,1P
-0.271814564,-0.279604477,-9.420551008,-2.413332192,1.922010538,0.630083078,Chew,1P
-0.237368866,-0.146600969,-9.384322366,-0.360822451,0.649003258,0.721684603,Chew,1P
-0.293753342,-0.045254033,-9.384880472,1.327766425,0.702857954,0.688681955,Chew,1P
-0.4280625,-0.094630409,-9.491920604,2.308598647,-0.975658446,0.091568935,Chew,1P
-0.637388105,-0.222772416,-9.714231158,2.151838653,-2.581820722,-0.155403068,Chew,1P
-0.804537118,-0.249769529,-9.883225156,0.570747395,-0.258438057,1.028271959,Chew,1P
-0.770006302,-0.123998459,-9.809440498,-1.755481067,4.45867082,2.862078358,Chew,1P
-0.54884771,0.016324659,-9.541631281,-3.328078819,5.787706761,3.413588139,Chew,1P
-0.343461255,0.034653872,-9.337495337,-3.169599517,2.273514089,2.216145756,Chew,1P
-0.31145084,-0.047087191,-9.356438465,-1.717434446,-0.879720981,0.815641838,Chew,1P
-0.417185669,-0.124611876,-9.492728577,-0.210712326,0.638899171,0.613914786,Chew,1P
-0.535653121,-0.15790332,-9.551384633,0.566518923,4.031335564,1.242543323,Chew,1P
-0.618650244,-0.172811148,-9.498134658,0.719987182,3.233460324,1.448850944,Chew,1P
-0.705193514,-0.169036917,-9.460289538,0.578019961,-2.435870448,0.915994191,Chew,1P
-0.802963623,-0.117610632,-9.514394051,0.050793444,-6.728204315,0.513922402,Chew,1P
-0.829965156,-0.051658844,-9.569796202,-1.052952689,-4.714469724,0.849714304,Chew,1P
-0.715704237,-0.068582845,-9.508336438,-2.354725215,0.696112281,1.36320286,Chew,1P
-0.524370106,-0.190127229,-9.364255855,-2.998767847,3.475610259,1.308568509,Chew,1P
-0.399959769,-0.291489022,-9.272957232,-2.428362295,2.565991129,0.946909843,Chew,1P
-0.400682015,-0.247758806,-9.29237968,-0.879580712,0.94729704,0.921757082,Chew,1P
-0.475169114,-0.106013072,-9.386877732,0.787961788,-0.592293206,0.955105971,Chew,1P
-0.579096276,-0.03186436,-9.538187355,1.534758481,-3.249710788,0.292117668,Chew,1P
-0.695877415,-0.104955397,-9.727532245,0.691776015,-5.217821467,-0.773635064,Chew,1P
-0.762158241,-0.231916396,-9.840173258,-1.309373766,-2.858297925,-1.015745165,Chew,1P
-0.712833746,-0.262990917,-9.755926682,-2.773228398,2.835619347,0.010312747,Chew,1P
-0.597929584,-0.157168427,-9.541475047,-2.119770636,6.3073664,1.362161548,Chew,1P
-0.532165519,-0.016721972,-9.403947228,0.249708319,5.09286372,2.001359936,Chew,1P
-0.535355812,0.035481526,-9.425435156,2.165487621,2.614381952,1.946256328,Chew,1P
-0.536423628,-0.011849298,-9.469690571,2.161616419,1.807095473,1.854416464,Chew,1P
-0.533059515,-0.07845403,-9.409343679,1.028470828,0.571470606,1.882473962,Chew,1P
-0.624451482,-0.120006543,-9.341706545,0.342661369,-3.458751892,1.474541021,Chew,1P
-0.834908812,-0.165741642,-9.455491628,0.184053312,-7.036826921,0.428098967,Chew,1P
-1.000100345,-0.225999813,-9.716061635,-0.622940626,-4.904741667,-0.389374894,Chew,1P
-0.931124172,-0.247668248,-9.84831244,-2.284724885,1.814046292,-0.052307028,Chew,1P
-0.661237781,-0.200041332,-9.687676516,-3.38770332,6.051893888,1.073671243,Chew,1P
-0.427166642,-0.136376581,-9.396392758,-2.787013747,4.286586226,1.817997253,Chew,1P
-0.392149197,-0.121148793,-9.232547736,-1.05297064,0.616153698,1.755000871,Chew,1P
-0.480596986,-0.145349265,-9.24263144,0.474707571,-0.294514526,1.399428439,Chew,1P
-0.541029412,-0.157185883,-9.314853197,1.222943188,0.240235534,1.071643529,Chew,1P
-0.582942908,-0.139985973,-9.410879165,1.385854222,-1.498059176,0.566184951,Chew,1P
-0.723431811,-0.121137713,-9.55677919,1.040755902,-4.554426347,0.038779033,Chew,1P
-0.936823439,-0.128302805,-9.673961191,0.12235828,-4.191243565,0.217561408,Chew,1P
-1.034864487,-0.172360077,-9.632109473,-0.844213169,0.601345554,1.229602763,Chew,1P
-0.929497145,-0.255243263,-9.468290537,-0.853075509,4.989848234,2.005976216,Chew,1P
-0.727712921,-0.350560268,-9.35710206,0.285363352,5.113147393,1.648910922,Chew,1P
-0.481096906,-0.385884052,-9.327636737,1.247428205,2.783092362,0.930020986,Chew,1P
-0.076042642,-0.30379877,-9.213062433,0.541472424,0.903645042,1.449147086,Chew,1P
0.425195132,-0.152986683,-8.982942878,-1.519329428,-1.595821585,3.330615207,Chew,1P
0.581051944,-0.05639754,-8.915022186,-3.019518057,-6.223258668,4.785286887,Chew,1P
0.06022685,-0.061444553,-9.222957952,-2.775899062,-9.401260636,4.371023132,Chew,1P
-0.811286519,-0.087509592,-9.665365262,-1.560002547,-5.956644775,2.751493647,Chew,1P
-1.351958459,-0.059158387,-9.802388615,-0.705334987,2.519410175,1.572212875,Chew,1P
-1.291044207,-0.015410686,-9.565916234,-0.467946958,8.238302043,1.473355128,Chew,1P
-0.940186699,-0.031163634,-9.299672571,-0.304234744,7.131474776,1.972203239,Chew,1P
-0.684818259,-0.097104669,-9.262560331,-0.0263176,3.125799842,2.490019021,Chew,1P
-0.601723382,-0.143852128,-9.363497153,0.099035412,0.692379105,2.604456305,Chew,1P
-0.592391788,-0.150323748,-9.423067481,0.100842892,-1.50035096,1.872902819,Chew,1P
-0.634647763,-0.171357259,-9.448635861,0.307866822,-5.773393173,0.395037347,Chew,1P
-0.752907149,-0.255774537,-9.526182686,0.537762503,-8.835277654,-0.672595222,Chew,1P
-0.873647041,-0.369385628,-9.611243529,0.116090858,-5.762830548,-0.162656259,Chew,1P
-0.896586205,-0.422858266,-9.599060628,-0.959599363,1.688475403,1.476704476,Chew,1P
-0.858471322,-0.372358953,-9.517165981,-1.641046805,6.634501973,2.544999954,Chew,1P
-0.850790671,-0.273509199,-9.479211557,-1.1635243,5.898613877,2.232935339,Chew,1P
-0.809932939,-0.221203749,-9.479520508,-0.134577057,2.157024833,1.474580568,Chew,1P
-0.600865774,-0.244267623,-9.402334005,0.364542251,-1.604847962,1.407910809,Chew,1P
-0.331501091,-0.292097202,-9.260737196,0.20211067,-4.531441183,1.869788917,Chew,1P
-0.339690199,-0.32847361,-9.257291676,-0.119323291,-5.210538884,2.013050243,Chew,1P
-0.730966847,-0.379700998,-9.495814683,-0.717243427,-1.714865767,1.837150346,Chew,1P
-1.127467192,-0.456797482,-9.757572216,-2.076157152,4.267442204,2.135367304,Chew,1P
-1.084246746,-0.493231831,-9.735223992,-3.642066873,7.181068798,3.015718185,Chew,1P
-0.641937219,-0.425119036,-9.435595349,-3.976499275,4.168220361,3.54960228,Chew,1P
-0.27456358,-0.300112206,-9.179090361,-2.665208275,-0.350800165,3.104112877,Chew,1P
-0.355833738,-0.238992285,-9.212645508,-1.015088972,0.072951619,2.049833998,Chew,1P
-0.828336652,-0.287640234,-9.476632066,-0.330196016,4.90730499,0.895983746,Chew,1P
-1.346131923,-0.35615613,-9.753262768,-0.378122001,6.747125903,-0.397891826,Chew,1P
-1.601559586,-0.331101519,-9.891176312,-0.274965686,1.838919105,-1.937825182,Chew,1P
-1.512680078,-0.22150739,-9.851067041,-0.120989791,-3.544874153,-3.307736748,Chew,1P
-1.193143429,-0.14938733,-9.663172222,-0.711173348,-1.690838911,-3.755836677,Chew,1P
-0.814927357,-0.196428824,-9.419076636,-2.018797484,4.796033344,-2.837277314,Chew,1P
-0.515513931,-0.306934215,-9.245040964,-3.000889809,6.724867175,-0.853029158,Chew,1P
-0.385198242,-0.363656827,-9.216034332,-2.843859294,2.16982687,1.269774366,Chew,1P
-0.469838689,-0.325087593,-9.3105139,-1.715194549,-1.326215122,2.410012796,Chew,1P
-0.759517563,-0.251000686,-9.473795236,-0.308749305,1.245703741,1.737429702,Chew,1P
-1.167498063,-0.205191822,-9.682046956,0.814392178,5.59004281,-0.4999383,Chew,1P
-1.518290765,-0.178543973,-9.898535886,1.325947995,6.017485728,-2.522010157,Chew,1P
-1.616981613,-0.126476509,-10.02032784,1.06547757,4.126872835,-2.390793392,Chew,1P
-1.401249196,-0.053026424,-9.956681419,0.228054983,4.62657235,-0.28419343,Chew,1P
-1.009796442,-0.020788664,-9.748775133,-0.634674799,6.629166864,1.607700753,Chew,1P
-0.662457998,-0.071788398,-9.539211359,-1.061893279,5.533523469,1.884870629,Chew,1P
-0.495079338,-0.167521275,-9.42507063,-1.016940667,1.424992857,1.471531016,Chew,1P
-0.53258239,-0.234991991,-9.401676663,-0.776712946,-0.80090268,1.638993789,Chew,1P
-0.76394922,-0.253142391,-9.447646555,-0.650131685,0.731921872,1.714448738,Chew,1P
-1.146616322,-0.253929005,-9.580738443,-0.71689282,2.327122939,0.268528539,Chew,1P
-1.526968573,-0.246987569,-9.77682096,-0.735531421,1.093543823,-1.94369295,Chew,1P
-1.669716088,-0.195789307,-9.899056102,-0.468154288,-0.503208676,-2.251678893,Chew,1P
-1.460330777,-0.091031952,-9.813006106,-0.150123671,0.776162716,0.221420647,Chew,1P
-1.042169535,-0.00480194,-9.56513103,-0.32379957,3.267826628,2.991128573,Chew,1P
-0.69059863,-0.019479901,-9.35402184,-1.006645257,3.418031422,3.458007378,Chew,1P
-0.575839506,-0.122759366,-9.313534525,-1.40307508,1.890554437,2.15452595,Chew,1P
-0.68581906,-0.229080525,-9.399520052,-0.829194061,1.786386626,1.319610299,Chew,1P
-0.926076342,-0.2864522,-9.498314212,0.36255096,2.275573871,1.453731498,Chew,1P
-1.202702924,-0.30351805,-9.562578898,1.106343519,-0.63274529,1.110710909,Chew,1P
-1.410482442,-0.292994815,-9.601264375,0.659014473,-6.439566387,-0.315269476,Chew,1P
-1.437373031,-0.25394846,-9.607713308,-0.745619493,-8.327942317,-1.433626857,Chew,1P
-1.24157608,-0.206158811,-9.573123499,-2.069281665,-2.045349727,-0.918546757,Chew,1P
-0.906624082,-0.191064726,-9.536667385,-2.443895061,6.969936679,0.65429646,Chew,1P
-0.595223295,-0.223769994,-9.541308668,-2.017417528,9.840209395,1.867960076,Chew,1P
-0.441366895,-0.264253625,-9.549847476,-1.44177925,5.519756038,2.333062791,Chew,1P
-0.489197937,-0.253174143,-9.488877748,-0.725408793,1.015668884,2.372318085,Chew,1P
-0.731883613,-0.184837711,-9.396791557,0.554288648,1.414601331,1.590072608,Chew,1P
-1.139993161,-0.135415719,-9.438581111,1.839267152,4.588579277,-0.637503402,Chew,1P
-1.574614909,-0.181577168,-9.686490715,1.466914174,6.32969207,-3.281113602,Chew,1P
-1.761150684,-0.285156349,-9.941359485,-1.205117119,6.215792793,-3.950941191,Chew,1P
-1.521960425,-0.32359208,-9.91574372,-4.145279887,5.898987804,-1.771926142,Chew,1P
-1.023585534,-0.259706124,-9.601555102,-4.42787726,4.997954304,1.251609344,Chew,1P
-0.650715845,-0.199418208,-9.309193407,-1.714659167,2.500823261,2.58285521,Chew,1P
-0.617770616,-0.241108091,-9.29483808,1.266103186,0.222227336,1.973966588,Chew,1P
-0.785258468,-0.341016828,-9.468854874,1.97114042,0.817545543,1.130424662,Chew,1P
-0.867263336,-0.369463918,-9.547978066,0.643134878,2.981772397,1.215439951,Chew,1P
-0.769244426,-0.266435899,-9.430678818,-0.746112146,2.128978009,1.666591927,Chew,1P
-0.681619478,-0.126630663,-9.322666285,-1.189623706,-3.180907573,1.471085657,Chew,1P
-0.822824753,-0.124341202,-9.454820285,-1.473241552,-7.935391722,0.762356292,Chew,1P
-1.141184805,-0.325101486,-9.752286039,-2.522012162,-6.387464603,0.466799876,Chew,1P
-1.367911251,-0.585056985,-9.91388357,-3.722726547,0.069168922,0.763072121,Chew,1P
-1.347950288,-0.686124468,-9.805524509,-3.573531121,4.558107305,0.937151684,Chew,1P
-1.186526449,-0.563690766,-9.600092658,-1.82709232,4.069386548,0.7477079,Chew,1P
-1.050762657,-0.35574434,-9.489823524,-0.071897436,2.374570719,0.811334354,Chew,1P
-0.970714639,-0.236823562,-9.45179024,0.139814977,2.578652714,1.416989285,Chew,1P
-0.911847915,-0.250284266,-9.400048267,-1.00295053,1.945301513,1.946523574,Chew,1P
-0.930291677,-0.301561672,-9.405512178,-2.159139764,-2.467131689,1.872574721,Chew,1P
-1.108928487,-0.273838976,-9.586019228,-2.435815168,-6.653943842,1.606490655,Chew,1P
-1.358373208,-0.147950651,-9.846824832,-1.841251316,-3.734402334,1.739960828,Chew,1P
-1.438431443,-0.036777541,-9.928539066,-0.759458793,5.287885036,1.882278555,Chew,1P
-1.236888408,-0.081699995,-9.735837414,0.279695731,10.72466334,1.153566815,Chew,1P
-0.915809967,-0.279587254,-9.460347834,0.642579672,6.456490931,-0.205354606,Chew,1P
-0.720925467,-0.454552319,-9.332670489,0.075276094,-1.538271586,-0.74960955,Chew,1P
-0.739668217,-0.456229402,-9.387548017,-0.898277066,-2.666708575,0.230968381,Chew,1P
-0.902629269,-0.336072319,-9.523724296,-1.3965703,4.430781204,1.508609567,Chew,1P
-1.131880287,-0.258602527,-9.665841595,-1.113516723,9.774764838,1.320667499,Chew,1P
-1.384825661,-0.282237313,-9.777769761,-0.790160249,5.003243754,-0.450315638,Chew,1P
-1.565909158,-0.301177533,-9.795644995,-1.348192269,-5.036051807,-2.137298835,Chew,1P
-1.521230357,-0.189586214,-9.665934153,-2.249255546,-8.211519409,-2.177287491,Chew,1P
-1.236784826,0.041036603,-9.458059875,-1.552713233,-0.962239075,-0.586755108,Chew,1P
-0.966537992,0.231447125,-9.345599772,1.462604199,8.230066517,1.441906059,Chew,1P
-0.953505358,0.219958405,-9.403242601,4.484809235,11.12354651,2.859574146,Chew,1P
-1.033969991,0.010550064,-9.475023419,4.232396116,8.162032445,3.436081336,Chew,1P
-0.799641319,-0.213882799,-9.361687366,0.201945714,3.077944466,3.442225069,Chew,1P
-0.23453315,-0.273236413,-9.131714039,-4.511621867,-3.404618061,3.110820837,Chew,1P
0.116835349,-0.179902093,-9.085880009,-6.448775386,-10.0473715,2.698421514,Chew,1P
-0.190870584,-0.108342098,-9.352273173,-5.305670793,-11.27342282,2.729535098,Chew,1P
-0.922083998,-0.176415756,-9.685899652,-3.480640265,-3.730382403,3.383690065,Chew,1P
-1.464204559,-0.317654262,-9.784498443,-2.648195148,6.446885528,3.841287299,Chew,1P
-1.528111514,-0.389642429,-9.651990636,-2.295650319,9.783132563,3.238640161,Chew,1P
-1.320360963,-0.343489719,-9.510862217,-1.505151815,5.38340898,2.071315367,Chew,1P
-1.144195557,-0.249170098,-9.479509143,-0.451068097,0.746814127,1.583269947,Chew,1P
-1.078888517,-0.203956756,-9.499312198,0.192642441,0.345683173,1.886221165,Chew,1P
-1.070839867,-0.251689628,-9.518844622,0.144139869,0.093506155,1.761660045,Chew,1P
-1.142663276,-0.348632309,-9.579220088,-0.458467543,-4.969449373,0.611619203,Chew,1P
-1.352594386,-0.37892323,-9.687455975,-1.168670958,-11.45750516,-0.292769773,Chew,1P
-1.605196753,-0.257688204,-9.736721009,-1.27131045,-10.74093428,0.617103381,Chew,1P
-1.680718288,-0.054057628,-9.642497845,-0.371072412,-0.962805031,2.830681444,Chew,1P
-1.492143951,0.050404576,-9.48344431,0.898844427,9.009966425,4.177545432,Chew,1P
-1.190165479,-0.033906953,-9.407674339,1.339690727,10.1762356,3.622922723,Chew,1P
-0.974972254,-0.20335969,-9.442046706,0.571749528,4.23103915,2.343863613,Chew,1P
-0.919425048,-0.299336409,-9.490553591,-0.576362557,0.041013573,1.693141957,Chew,1P
-1.018743283,-0.282078297,-9.501166431,-1.239321593,1.61084218,1.371261477,Chew,1P
-1.272606846,-0.21980373,-9.534010643,-1.421805233,4.456650203,0.447429459,Chew,1P
-1.600721835,-0.157010108,-9.636965466,-1.393458614,4.136917405,-0.695892979,Chew,1P
-1.773162865,-0.072499857,-9.734036504,-0.883535009,2.931891329,-0.712085576,Chew,1P
-1.599425767,0.023439635,-9.711058244,0.403448422,4.455142627,0.58043867,Chew,1P
-1.195735913,0.032858125,-9.580654865,1.879160545,6.211057463,1.662018512,Chew,1P
-0.924018213,-0.11374995,-9.482261507,2.48656469,3.591215009,1.30920558,Chew,1P
-0.97917208,-0.330772815,-9.498982619,1.800408461,-1.594820723,0.278627634,Chew,1P
-1.108134468,-0.453902506,-9.525708523,0.088517548,-3.232581306,0.348039215,Chew,1P
-0.896848649,-0.420672136,-9.394481997,-2.149482988,-0.373173769,1.957099075,Chew,1P
-0.36745483,-0.312240012,-9.146411166,-3.943586235,1.278158847,3.461857329,Chew,1P
-0.073172977,-0.246415016,-9.064771676,-4.096510456,-2.045302495,3.171230447,Chew,1P
-0.435495559,-0.278436093,-9.332872649,-2.702150511,-6.459706998,1.726838557,Chew,1P
-1.188042633,-0.37502804,-9.753064898,-1.433498632,-5.710764045,1.353339787,Chew,1P
-1.708011778,-0.443928353,-9.951081608,-1.38230438,0.325722864,2.712890412,Chew,1P
-1.728767571,-0.408931711,-9.800527421,-1.737603502,5.942071767,4.042725329,Chew,1P
-1.477831137,-0.286976491,-9.507815733,-1.392511208,7.449382493,3.8046023,Chew,1P
-1.258069517,-0.18256666,-9.329522544,-0.568882288,6.627869089,2.479486399,Chew,1P
-1.176301166,-0.187791413,-9.352267086,0.010333851,5.911518093,1.148739238,Chew,1P
-1.23194782,-0.294290823,-9.523243297,0.33143483,4.466282545,0.014767454,Chew,1P
-1.405187701,-0.412210243,-9.735767231,0.477906155,1.338886032,-0.861097904,Chew,1P
-1.592711767,-0.462062348,-9.852098299,-0.101735479,-1.044830883,-0.828132406,Chew,1P
-1.625671485,-0.435966767,-9.774051809,-1.522454743,-0.18398941,0.34140236,Chew,1P
-1.451466142,-0.381129847,-9.559547206,-2.524336248,2.081798653,1.700682423,Chew,1P
-1.214873076,-0.343391892,-9.389907966,-1.870319874,2.510423871,2.252447731,Chew,1P
-1.090378531,-0.329940452,-9.373960306,-0.076970408,2.060226314,2.092295457,Chew,1P
-1.110571259,-0.313167852,-9.453110462,1.289816825,4.12241317,1.739921268,Chew,1P
-1.225148633,-0.265646589,-9.532851526,1.475924427,7.758132761,1.068301227,Chew,1P
-1.4236139,-0.202996089,-9.617297684,0.817528576,7.44806439,-0.184708277,Chew,1P
-1.669848195,-0.186335038,-9.73849828,-0.25011277,1.498974853,-1.292687897,Chew,1P
-1.790831555,-0.253651501,-9.823032764,-1.447034563,-3.372976807,-1.081774544,Chew,1P
-1.611643508,-0.352950226,-9.745538095,-2.178649011,-0.491672289,0.350633682,Chew,1P
-1.212299741,-0.385469598,-9.508791985,-1.843364413,6.518117702,1.535500916,Chew,1P
-0.905766493,-0.322250122,-9.278341675,-0.750857329,8.421750952,1.59868723,Chew,1P
-0.898045673,-0.239446417,-9.210680999,-0.015065915,3.790324532,1.342242106,Chew,1P
-1.05468186,-0.227959908,-9.298416833,-0.33099449,0.217509296,1.71973789,Chew,1P
-1.097003878,-0.29859351,-9.423792552,-1.233020558,2.033105918,2.034906222,Chew,1P
-0.989156968,-0.384728126,-9.529499935,-1.676979582,4.326617725,0.846497198,Chew,1P
-0.977769699,-0.415097668,-9.654501907,-1.274783443,1.867358193,-1.409491395,Chew,1P
-1.21032148,-0.375236789,-9.796297931,-0.750519761,-2.20238683,-2.197104401,Chew,1P
-1.493919357,-0.309976233,-9.850626108,-0.842235177,-1.785565824,-0.117448404,Chew,1P
-1.547539527,-0.275256439,-9.74991963,-1.136531876,2.16520603,2.953770367,Chew,1P
-1.351709665,-0.291656348,-9.573651631,-0.77121234,3.754580563,4.207408532,Chew,1P
-1.124781031,-0.340343019,-9.44884382,0.143388833,1.951841443,3.241132608,Chew,1P
-1.066368386,-0.381889198,-9.412773393,0.789322996,1.10832279,1.76288053,Chew,1P
-1.238605508,-0.371587553,-9.445539051,0.901534648,2.260179586,0.969864858,Chew,1P
-1.596153837,-0.294146599,-9.561635556,0.732114311,0.923503887,0.670995442,Chew,1P
-1.993197442,-0.20729088,-9.764254015,0.118375439,-4.470557793,0.50304965,Chew,1P
-2.215322051,-0.204033598,-9.952939746,-1.212508615,-7.561459178,0.574260391,Chew,1P
-2.141453284,-0.290058618,-9.992008334,-2.415662851,-2.044752044,0.817798405,Chew,1P
-1.873614785,-0.347664027,-9.868987025,-1.919480901,8.42067003,0.896054414,Chew,1P
-1.620751353,-0.281419428,-9.700113606,0.429419326,13.87937773,1.003701853,Chew,1P
-1.474407729,-0.158175487,-9.578268118,2.755809814,10.55591844,1.66591212,Chew,1P
-1.397779376,-0.127602329,-9.495439912,3.387741008,4.086776344,2.481440939,Chew,1P
-1.407966348,-0.226883482,-9.434024329,2.543224099,0.265067997,2.192611586,Chew,1P
-1.596882581,-0.343316125,-9.447897884,1.096462636,-1.481003543,0.467790539,Chew,1P
-1.912297333,-0.370494756,-9.572917366,-0.817181263,-3.387478275,-1.232875294,Chew,1P
-2.089474546,-0.329549493,-9.708564196,-2.85804402,-3.750490908,-1.239375387,Chew,1P
-1.938301205,-0.311322397,-9.707364145,-3.619513097,-0.338153555,0.296301102,Chew,1P
-1.591159633,-0.349810631,-9.572428088,-2.211775934,4.250337434,1.713917765,Chew,1P
-1.33372804,-0.396315582,-9.449506494,0.135524772,5.59169909,2.036330405,Chew,1P
-1.277488205,-0.402733709,-9.424303219,1.270418009,4.032817878,1.878230923,Chew,1P
-1.328617153,-0.384445933,-9.449460278,0.455757565,3.781269461,1.90239809,Chew,1P
-1.403474957,-0.379768164,-9.488767687,-1.206056616,5.712618274,1.384348053,Chew,1P
-1.521319481,-0.380416345,-9.603669639,-2.201713287,5.417883839,-0.63226911,Chew,1P
-1.689708978,-0.350443328,-9.817310816,-1.959139357,0.557854082,-3.095840326,Chew,1P
-1.812049706,-0.301660316,-9.976113298,-1.14173368,-3.58931899,-3.398896691,Chew,1P
-1.767109043,-0.291091443,-9.876391743,-0.778163062,-0.850457927,-0.717325351,Chew,1P
-1.570387606,-0.334621459,-9.539367555,-0.932742386,6.050102946,2.455987847,Chew,1P
-1.403220803,-0.375258321,-9.250870189,-0.729657077,8.921152883,3.297815701,Chew,1P
-1.393409749,-0.359970733,-9.247225576,-0.047205741,5.882379079,2.147106321,Chew,1P
-1.380705758,-0.316973375,-9.418160313,-0.15325506,2.632428966,1.535624235,Chew,1P
-1.088977277,-0.333269152,-9.445758591,-1.683932904,2.158755834,2.253631005,Chew,1P
-0.613790216,-0.455947903,-9.243865455,-2.919870204,0.245880745,2.243503009,Chew,1P
-0.48541191,-0.615483745,-9.096509476,-1.693650509,-6.274785167,0.145552278,Chew,1P
-1.020413003,-0.663902178,-9.261481723,1.284740109,-12.05545263,-1.786175424,Chew,1P
-1.818301782,-0.525316038,-9.592353603,2.912012729,-9.152719364,-0.502287244,Chew,1P
-2.189814086,-0.302515905,-9.736013642,1.737396574,1.497693516,3.089796408,Chew,1P
-1.946187493,-0.1829376,-9.602877224,-0.404765477,10.14869181,5.128868058,Chew,1P
-1.491815446,-0.235250671,-9.424294661,-1.281495232,10.19700912,4.212755222,Chew,1P
-1.23724537,-0.353663224,-9.383876103,-0.88040433,4.90328715,2.719454603,Chew,1P
-1.214383371,-0.405252849,-9.415219344,-0.393710261,0.447269327,2.525995829,Chew,1P
-1.296711279,-0.366442434,-9.409694412,-0.24362469,-2.649354455,2.310285772,Chew,1P
-1.527119954,-0.300487546,-9.435343698,-0.28644823,-6.959883205,0.277486391,Chew,1P
-1.995788468,-0.265275759,-9.604895736,-0.875328607,-10.13614955,-2.394185558,Chew,1P
-2.483977958,-0.281570993,-9.817764547,-2.257539362,-5.910966257,-2.812075602,Chew,1P
-2.538383389,-0.354797918,-9.823818501,-3.4116857,5.763265544,-0.423829517,Chew,1P
-2.013877394,-0.473013,-9.561942471,-2.949262745,15.46687888,2.263912587,Chew,1P
-1.329595879,-0.57843496,-9.274488461,-1.022380793,15.33902838,3.150074065,Chew,1P
-1.016303451,-0.588705656,-9.211902855,0.883348155,8.937278116,2.714357275,Chew,1P
-1.132656173,-0.47917442,-9.341021857,1.715326008,4.543701638,2.121091381,Chew,1P
-1.297376007,-0.323428295,-9.447827577,1.249463718,2.309716939,1.08863074,Chew,1P
-1.23406144,-0.231619699,-9.448351844,-0.486367723,-4.01468473,-0.984681969,Chew,1P
-1.086927456,-0.25619226,-9.456867733,-2.585353798,-13.37295106,-3.035668082,Chew,1P
-1.142214014,-0.349282479,-9.563915025,-2.860219757,-14.88921737,-3.266827286,Chew,1P
-1.39682992,-0.401144948,-9.694266425,-0.061009815,-3.239543872,-1.619426134,Chew,1P
-1.564062437,-0.347513913,-9.722966816,3.854591582,10.98423222,0.306222325,Chew,1P
-1.458457561,-0.246777368,-9.624281105,5.464379562,13.51901729,1.52488588,Chew,1P
-1.213198929,-0.212345618,-9.46723637,3.761845318,4.739921197,2.21414233,Chew,1P
-1.09317717,-0.274024405,-9.350972639,0.834052975,-1.859396666,2.214101135,Chew,1P
-1.220702117,-0.359583671,-9.386605976,-1.141019902,2.285708225,0.886185613,Chew,1P
-1.528653824,-0.404272949,-9.657875676,-2.055188801,11.53758131,-1.096316953,Chew,1P
-1.85955143,-0.412568377,-10.09409428,-2.774073369,15.77746808,-1.446396532,Chew,1P
-2.032855277,-0.406134937,-10.40770204,-3.121927851,12.84853299,1.090216526,Chew,1P
-1.924283909,-0.377443038,-10.31049016,-1.993890788,7.3905786,4.634320864,Chew,1P
-1.597460461,-0.324699489,-9.853529855,0.613767566,2.487719851,6.004821975,Chew,1P
-1.302032274,-0.284150233,-9.422675398,2.728099189,-1.553981181,4.397998386,Chew,1P
-1.235743426,-0.287266124,-9.314023164,2.377308634,-3.327080306,2.153697604,Chew,1P
-1.337127727,-0.310231992,-9.433429229,0.018295092,-1.314872008,1.71211805,Chew,1P
-1.398956859,-0.299495689,-9.508933278,-1.784354112,2.144130223,2.66089196,Chew,1P
-1.357572325,-0.24112133,-9.480715143,-1.116062684,2.248417573,2.548700347,Chew,1P
-1.35705899,-0.182768296,-9.524778813,1.149682676,-1.982000776,0.400875235,Chew,1P
-1.498550546,-0.182189633,-9.723187622,2.246890528,-5.271460125,-1.754042437,Chew,1P
-1.647084477,-0.246705557,-9.891663113,0.734817727,-2.420423409,-1.520864304,Chew,1P
-1.604373016,-0.329036206,-9.827033977,-1.736264922,4.098640688,0.767990349,Chew,1P
-1.396790069,-0.370733123,-9.599082024,-2.55082487,6.888368082,2.780658383,Chew,1P
-1.232193719,-0.348084599,-9.438583566,-1.288076165,3.796284627,3.186790628,Chew,1P
-1.204878972,-0.294492023,-9.401333052,0.349254762,0.212961939,2.510614173,Chew,1P
-1.220253107,-0.28273109,-9.336552358,1.030798683,0.235673842,1.541471872,Chew,1P
-1.231403799,-0.359426679,-9.20213345,0.752699431,1.051624033,0.508371399,Chew,1P
-1.3694414,-0.479306125,-9.20739677,-0.183438887,-0.966776715,-0.130322425,Chew,1P
-1.715559116,-0.531836751,-9.511447923,-1.42086055,-3.148096486,0.375386928,Chew,1P
-2.050565725,-0.462794204,-9.914391099,-1.915436386,-0.617493934,1.686735638,Chew,1P
-2.027161196,-0.343290257,-10.04350716,-0.771546022,4.961722894,2.205706135,Chew,1P
-1.603412525,-0.288787749,-9.80245187,1.176866606,7.098004256,1.20271434,Chew,1P
-1.135721223,-0.334555885,-9.458564393,2.095969049,4.371362901,-0.006833966,Chew,1P
-0.990768557,-0.410190494,-9.302737636,1.46956032,1.99452196,-0.001190504,Chew,1P
-1.207477949,-0.417557149,-9.392779362,0.358745971,2.694943234,0.659959003,Chew,1P
-1.576385242,-0.327964528,-9.62392484,-0.482201996,2.702423527,0.411120062,Chew,1P
-1.887123565,-0.209497608,-9.864805682,-1.247664824,-0.491420972,-0.913055296,Chew,1P
-2.032274858,-0.152986515,-9.984103461,-1.710829849,-2.476792905,-1.809184325,Chew,1P
-2.004386177,-0.180955972,-9.902119301,-0.845250077,1.118014953,-1.105630425,Chew,1P
-1.884398471,-0.247076128,-9.689784745,1.36081856,6.875166925,0.703747127,Chew,1P
-1.778336288,-0.305191817,-9.523694341,3.062217115,8.578891614,2.250844909,Chew,1P
-1.707946003,-0.348852094,-9.490959824,2.739409964,5.752604565,2.713921511,Chew,1P
-1.591611635,-0.390988609,-9.5032765,1.191416412,1.554163368,2.244986377,Chew,1P
-1.382375291,-0.428584256,-9.446274048,0.092381269,-3.311213165,1.552674854,Chew,1P
-1.196675133,-0.439400278,-9.35236559,-0.498073875,-8.347487707,1.373991407,Chew,1P
-1.213295977,-0.416193627,-9.348385481,-1.656194392,-9.036043856,1.943882397,Chew,1P
-1.443421244,-0.385845247,-9.465698524,-3.143790624,-2.111491619,2.641422829,Chew,1P
-1.71142079,-0.371616265,-9.603476662,-3.19545565,7.123521286,2.530181825,Chew,1P
-1.857112015,-0.359587429,-9.66545845,-1.108790142,9.888963143,1.591730754,Chew,1P
-1.819337137,-0.337057968,-9.625162762,1.267149207,5.468377103,0.977623087,Chew,1P
-1.561445936,-0.330550324,-9.483352142,1.419710061,1.019941133,1.590057067,Chew,1P
-1.142240198,-0.356105301,-9.301207114,-1.045694639,0.281911306,2.787191074,Chew,1P
-0.861043165,-0.366146137,-9.25267804,-4.093005455,-0.331819632,3.067343904,Chew,1P
-1.034522252,-0.311247232,-9.461467153,-5.501400027,-3.007229041,1.983226669,Chew,1P
-1.53553884,-0.241330094,-9.771200078,-4.896841027,-3.319446893,0.76545517,Chew,1P
-1.841653734,-0.276090391,-9.868824302,-3.341220411,1.791859966,0.684757975,Chew,1P
-1.671368446,-0.44781475,-9.670942486,-1.622118139,6.78123519,1.439177282,Chew,1P
-1.309789438,-0.617789562,-9.408500192,0.041122048,4.910043098,1.93460321,Chew,1P
-1.171790799,-0.612450887,-9.306493782,1.0884769,-0.885702851,1.987395298,Chew,1P
-1.281959888,-0.448637099,-9.362234514,0.868382226,-1.852263224,2.017121404,Chew,1P
-1.367516255,-0.347801249,-9.477174538,-0.192956692,3.455029156,1.501078085,Chew,1P
-1.319267816,-0.459801985,-9.631960003,-0.814581741,7.008999659,-0.498143008,Chew,1P
-1.326048281,-0.622942739,-9.830051433,-0.380219989,3.557813092,-2.924339525,Chew,1P
-1.537720371,-0.517883138,-9.977852467,0.59028032,-1.201514163,-2.822352864,Chew,1P
-1.797883076,-0.080539261,-9.959243546,1.439148768,0.493810708,0.797216419,Chew,1P
-1.845200185,0.360133895,-9.80282416,1.910266779,5.991075111,4.83224617,Chew,1P
-1.660557827,0.435626555,-9.65789364,1.769692196,6.373393714,5.703766084,Chew,1P
-1.442768762,0.133406061,-9.596923,0.945301096,0.751857871,3.800386694,Chew,1P
-1.30868153,-0.2579324,-9.546285118,-0.03644435,-2.609335991,2.262974624,Chew,1P
-1.226304272,-0.504804585,-9.448107492,-0.804711024,0.253650559,2.344335868,Chew,1P
-1.223632658,-0.591399574,-9.392488831,-2.133250968,2.837345575,2.340483168,Chew,1P
-1.408009525,-0.580622554,-9.501414889,-4.857565065,-1.14801069,0.979911406,Chew,1P
-1.727278533,-0.486647988,-9.732510672,-7.623374478,-6.943712696,-0.451071775,Chew,1P
-1.955542974,-0.335514506,-9.904113771,-7.328835438,-4.72443141,-0.295285384,Chew,1P
-1.98315765,-0.232007032,-9.907913217,-3.053635245,6.175003721,0.915077878,Chew,1P
-1.906896359,-0.260411992,-9.801107744,1.782618554,15.85334038,1.553707687,Chew,1P
-1.806076041,-0.360075991,-9.677773104,3.202422041,16.11794212,1.279342099,Chew,1P
-1.650640371,-0.391412941,-9.55042308,1.616353866,7.896180329,0.790068848,Chew,1P
-1.467202469,-0.319361131,-9.420571327,0.539501206,-2.897724741,0.326960934,Chew,1P
-1.40374885,-0.261935303,-9.388122747,1.107664851,-10.20004708,-0.057476395,Chew,1P
-1.545323706,-0.342904598,-9.557402337,0.884824062,-9.24839123,0.250487651,Chew,1P
-1.765805025,-0.540832374,-9.833394326,-1.583783466,-0.56407652,1.399052425,Chew,1P
-1.85082491,-0.712671039,-9.958310987,-3.974848237,7.526256794,2.185906958,Chew,1P
-1.732549569,-0.74476341,-9.8093283,-3.480832362,7.143360828,1.65928165,Chew,1P
-1.536465977,-0.649460996,-9.539853864,-0.846716975,1.144581016,0.637414579,Chew,1P
-1.430862256,-0.534675432,-9.374598271,0.937166194,-1.415927749,0.097817668,Chew,1P
-1.506759232,-0.513990311,-9.389008914,0.739653072,1.297620385,-0.756231009,Chew,1P
-1.761156835,-0.612777168,-9.531791503,-0.020704746,2.788309804,-2.798287085,Chew,1P
-2.080411756,-0.717480898,-9.719647787,-0.151651193,0.319626851,-4.311893742,Chew,1P
-2.248012733,-0.663584976,-9.842726155,-0.081393972,-0.366846665,-2.605599487,Chew,1P
-2.095751613,-0.433971328,-9.80181122,-0.404983105,4.728941035,1.829810405,Chew,1P
-1.694041924,-0.220389785,-9.62218334,-0.725712506,10.2651795,5.291273021,Chew,1P
-1.312476846,-0.213605768,-9.452442626,-0.517068158,9.351169045,5.382096029,Chew,1P
-1.1563553,-0.378707152,-9.39732573,-0.001485232,3.595258281,3.37605349,Chew,1P
-1.225663296,-0.521120652,-9.422037709,0.457888592,-0.58079046,1.632966376,Chew,1P
-1.455042916,-0.532727355,-9.463790454,0.894235155,-1.930293924,0.766059102,Chew,1P
-1.831938648,-0.478368804,-9.549832621,0.971866599,-4.013440332,0.202445729,Chew,1P
-2.257493166,-0.462806958,-9.714188269,-0.287884871,-6.438379427,-0.132838675,Chew,1P
-2.443504191,-0.511300992,-9.85496731,-2.911378473,-3.958341908,0.038758835,Chew,1P
-2.172103441,-0.590959607,-9.809700305,-4.911937701,4.140463514,0.415893966,Chew,1P
-1.62165885,-0.666270954,-9.582052376,-4.18828346,10.72745901,0.46013332,Chew,1P
-1.237849357,-0.700852069,-9.370629223,-1.114202639,10.4472526,0.238372351,Chew,1P
-1.257030253,-0.663777543,-9.330400835,1.809407715,6.515244633,0.208480776,Chew,1P
-1.488884533,-0.570576065,-9.407218854,2.498029725,3.621033668,0.494063689,Chew,1P
-1.596709988,-0.48184733,-9.464906716,0.738315778,0.141279164,0.770785952,Chew,1P
-1.485688575,-0.441832401,-9.485439224,-2.200986943,-6.474918536,0.706041613,Chew,1P
-1.350487821,-0.444125771,-9.54987334,-4.452793583,-11.32178703,0.37113692,Chew,1P
-1.395129302,-0.455064624,-9.66826743,-4.490006985,-7.235406141,0.222520392,Chew,1P
-1.600465458,-0.442158871,-9.740080897,-2.212988327,3.177588834,0.658101576,Chew,1P
-1.780881046,-0.392824356,-9.690011343,0.746550461,9.073704127,1.555951583,Chew,1P
-1.790862974,-0.331961774,-9.559755085,2.341271915,6.006650994,2.231555643,Chew,1P
-1.636322362,-0.303348176,-9.452931297,1.876996041,1.493014017,2.057266247,Chew,1P
-1.449781129,-0.318248088,-9.452951548,0.186920427,3.137074701,1.294386909,Chew,1P
-1.401426395,-0.34529355,-9.589176092,-1.709796182,7.970719404,0.97505445,Chew,1P
-1.560998503,-0.353213946,-9.807196285,-3.353026831,8.719993869,1.646485893,Chew,1P
-1.786317436,-0.338783248,-9.965395945,-4.268781811,5.425141123,2.550332819,Chew,1P
-1.824265151,-0.32036465,-9.933796265,-3.737436552,3.686740781,2.474834839,Chew,1P
-1.596108005,-0.321311138,-9.723970028,-1.775877962,4.728941186,1.26023896,Chew,1P
-1.309343408,-0.34434271,-9.482809386,0.319078549,5.044543837,-0.029164949,Chew,1P
-1.208607862,-0.360192948,-9.352000637,1.157400622,3.632907652,-0.402987887,Chew,1P
-1.296761819,-0.347625045,-9.37101083,0.621849958,2.020542342,0.089006399,Chew,1P
-1.409261231,-0.333973614,-9.50332483,-0.429691215,-0.950377461,0.730568402,Chew,1P
-1.486921146,-0.35276264,-9.678476208,-1.290942399,-6.923426685,1.051931024,Chew,1P
-1.605231341,-0.36892622,-9.786059531,-1.743045281,-11.78322214,1.21557297,Chew,1P
-1.758390208,-0.309302728,-9.724561171,-1.750490208,-8.945123712,1.581908842,Chew,1P
-1.818688741,-0.18320798,-9.53432367,-1.307863942,0.652542698,2.076390417,Chew,1P
-1.745337772,-0.101436353,-9.405322734,-0.515310553,8.2596647,2.374155974,Chew,1P
-1.640713162,-0.133430216,-9.4367823,0.258844288,8.209956193,2.625077502,Chew,1P
-1.551806144,-0.211993615,-9.446792856,0.464769435,3.407869322,3.184822959,Chew,1P
-1.420638117,-0.238810569,-9.200610165,0.029047821,-1.19053818,3.531735853,Chew,1P
-1.303036071,-0.23082193,-8.833324736,-0.32807869,-4.447769495,2.604010736,Chew,1P
-1.406504201,-0.287272746,-8.798559513,-0.136292594,-6.075636966,0.662636153,Chew,1P
-1.761299181,-0.435439161,-9.26678313,-0.134139186,-3.739701473,-0.467876287,Chew,1P
-2.044260995,-0.586291127,-9.812045802,-1.211399576,2.481303984,0.182743277,Chew,1P
-1.930891836,-0.649294249,-9.915549208,-2.807741643,7.018753482,1.350389882,Chew,1P
-1.510482474,-0.627032692,-9.594021869,-3.39497256,5.412604681,1.502554138,Chew,1P
-1.169860188,-0.579309359,-9.279896679,-2.308059732,0.891255584,0.842741505,Chew,1P
-1.150926372,-0.543626081,-9.227792925,-0.434389136,-0.853965036,0.325979524,Chew,1P
-1.401409424,-0.511435927,-9.33627612,0.661138068,-0.289851685,-0.022819708,Chew,1P
-1.775748826,-0.45627314,-9.485037238,-0.007792403,-1.328745747,-0.578403533,Chew,1P
-2.144610676,-0.374937136,-9.70545114,-2.048343754,-2.61735147,-0.84060632,Chew,1P
-2.327428796,-0.305704283,-9.954397424,-3.837108915,0.900638932,-0.038387177,Chew,1P
-2.172729294,-0.295285887,-10.01903725,-3.813340286,8.095721192,1.40638576,Chew,1P
-1.775569616,-0.345523162,-9.797355601,-1.894782737,11.23365986,2.208841613,Chew,1P
-1.443189944,-0.408428532,-9.480319648,0.584161257,7.277975391,1.87516048,Chew,1P
-1.37259564,-0.435299455,-9.325177431,2.263185764,2.256117862,1.06245502,Chew,1P
-1.471420897,-0.422039986,-9.380192608,2.618458587,1.188089508,0.397527364,Chew,1P
-1.544527088,-0.410285882,-9.524837863,1.617016935,0.519881356,-0.059714437,Chew,1P
-1.553236918,-0.445862029,-9.664863681,-0.49332615,-4.370116298,-0.104946155,Chew,1P
-1.607140139,-0.528461436,-9.781903802,-2.545968487,-9.29965682,0.641715052,Chew,1P
-1.764036966,-0.603055434,-9.858617027,-2.518399195,-6.029024164,1.58760964,Chew,1P
-1.944329076,-0.607610004,-9.863962259,0.46432129,4.892328259,1.348821403,Chew,1P
-2.032194418,-0.532154481,-9.800831606,4.363851157,13.26718493,-0.120629889,Chew,1P
-1.982095937,-0.430137271,-9.699661081,5.832627821,12.0091735,-0.95198588,Chew,1P
-1.829829204,-0.366463854,-9.580762004,3.798057871,4.597530049,0.161456126,Chew,1P
-1.663873449,-0.3607683,-9.480288504,0.35284811,-1.752191571,2.115364233,Chew,1P
-1.590056819,-0.399212405,-9.479071332,-1.895990338,-4.703004671,2.913052533,Chew,1P
-1.66907742,-0.48208697,-9.618684712,-2.125073295,-5.884801566,2.135053389,Chew,1P
-1.858794314,-0.605571538,-9.801888302,-1.046954657,-5.696119384,1.007619973,Chew,1P
-2.038372024,-0.697093811,-9.867897523,0.203087678,-2.797452909,0.498000055,Chew,1P
-2.112255855,-0.647254973,-9.760891437,0.713521474,3.030330096,0.345396097,Chew,1P
-2.089311245,-0.450500512,-9.550660613,0.388596981,10.42023279,0.03485578,Chew,1P
-0.380341108,0.279906328,-9.480273933,-0.755252078,0.983965053,1.224338026,Yawn,1P
-0.298811675,0.267071763,-9.51108302,-0.718542951,1.008167117,0.917270382,Yawn,1P
-0.27110025,0.276794578,-9.518512674,-0.794966278,1.102753586,0.964300233,Yawn,1P
-0.289451,0.303847325,-9.501863917,-0.907819566,1.33089269,1.285658881,Yawn,1P
-0.304891027,0.322525618,-9.481783588,-0.876263384,1.67550672,1.49002237,Yawn,1P
-0.294170123,0.313222786,-9.477301091,-0.66684396,1.914903713,1.367089064,Yawn,1P
-0.28015308,0.279088154,-9.484748511,-0.43165096,1.655161176,1.153335714,Yawn,1P
-0.290825221,0.245870476,-9.485059478,-0.340276431,0.879686952,1.254946431,Yawn,1P
-0.320620355,0.244609451,-9.476059996,-0.485551324,0.599367983,1.708222758,Yawn,1P
-0.333827012,0.282370945,-9.484234534,-0.840822345,2.371238581,1.972161,Yawn,1P
-0.291332096,0.330866013,-9.526159827,-1.096980521,6.448691219,1.440165404,Yawn,1P
-0.17575107,0.35354316,-9.568499325,-0.728454763,10.59900859,0.269130124,Yawn,1P
-0.008020673,0.339055896,-9.555355095,0.351653843,11.69631212,-0.534063048,Yawn,1P
0.155753365,0.301546723,-9.478093247,1.325713642,8.833712299,-0.111563148,Yawn,1P
0.257240793,0.26214773,-9.394556848,1.199770377,4.270321233,1.315926245,Yawn,1P
0.276363704,0.240552821,-9.370896452,-0.019469729,0.990956911,2.723966879,Yawn,1P
0.236812101,0.247558958,-9.417918946,-1.333829506,-0.137532362,3.285592073,Yawn,1P
0.172265214,0.273104569,-9.489864221,-1.890623589,-0.411920072,2.88672823,Yawn,1P
0.102203839,0.295204362,-9.532778997,-1.706565601,-1.065543781,1.887980827,Yawn,1P
0.043082393,0.306698791,-9.525173025,-1.326616655,-1.879223581,0.748750638,Yawn,1P
0.010901778,0.318439507,-9.483365339,-1.189783338,-2.164023481,-0.136412065,Yawn,1P
-0.010048505,0.335797074,-9.444640077,-1.423839816,-2.320891313,-0.563980264,Yawn,1P
-0.071052639,0.352238253,-9.441132861,-1.891527094,-3.449710472,-0.639626713,Yawn,1P
-0.193660042,0.369507427,-9.469227787,-2.100637437,-5.257885245,-0.668681918,Yawn,1P
-0.318610708,0.399095447,-9.485575357,-1.341025392,-5.359402695,-0.883233287,Yawn,1P
-0.37333523,0.425276979,-9.466787823,0.341885305,-2.05477592,-1.241668845,Yawn,1P
-0.395985386,0.391718873,-9.474437121,1.228058514,2.047377428,-1.298364843,Yawn,1P
-0.523284861,0.274965516,-9.592328647,-0.825729033,1.193931028,-0.340299673,Yawn,1P
-0.811825105,0.168476553,-9.770514942,-5.321834046,-6.685093375,1.781192266,Yawn,1P
-1.141194173,0.217848342,-9.82753533,-8.468496286,-15.60357517,3.838979177,Yawn,1P
-1.363095247,0.439145311,-9.676540612,-7.158165677,-17.26678717,4.056892604,Yawn,1P
-1.477894128,0.671740545,-9.45922318,-2.81757711,-10.98295603,2.135989552,Yawn,1P
-1.582475468,0.7529833,-9.373711475,0.438931573,-4.062428445,-0.22290334,Yawn,1P
-1.705304294,0.678601665,-9.443643749,0.943490963,-1.661275396,-1.118494988,Yawn,1P
-1.774610975,0.558063824,-9.532372088,0.889924334,-0.416145906,-0.200663612,Yawn,1P
-1.712957231,0.472895588,-9.5298447,2.599930656,5.324076815,1.445006324,Yawn,1P
-1.512055802,0.423025342,-9.456775047,5.153516465,14.10980846,2.534117322,Yawn,1P
-1.241422037,0.378213882,-9.406182776,5.745121056,18.42326591,2.547214873,Yawn,1P
-1.009684825,0.331527339,-9.432796474,3.477401775,14.41356462,1.884597378,Yawn,1P
-0.892971899,0.294019484,-9.509554261,0.435261492,6.553365339,1.312981893,Yawn,1P
-0.880599185,0.265885744,-9.57200471,-0.955578789,1.601383899,1.227701408,Yawn,1P
-0.898501977,0.235699126,-9.585528028,-0.488059508,1.215471509,1.432162031,Yawn,1P
-0.889038931,0.199708597,-9.565361368,0.280606258,2.371816179,1.573118328,Yawn,1P
-0.855963149,0.166954814,-9.544836736,0.199235689,2.582145936,1.593428008,Yawn,1P
-0.832113204,0.149734845,-9.539435728,-0.462297807,2.117895789,1.642016633,Yawn,1P
-0.829089851,0.157192524,-9.54124538,-0.851917964,2.082076294,1.71453438,Yawn,1P
-0.833725853,0.190601043,-9.537790376,-0.676316874,2.586761121,1.639951857,Yawn,1P
-0.83126801,0.23519725,-9.528755881,-0.312040717,3.062242343,1.373612216,Yawn,1P
-0.810532047,0.264404012,-9.52205918,-0.1676681,3.142003245,1.049026337,Yawn,1P
-0.762695696,0.264825815,-9.518966821,-0.29003708,2.885191257,0.731711972,Yawn,1P
-0.694860671,0.25105484,-9.51373238,-0.516102303,2.642157552,0.377845369,Yawn,1P
-0.632073821,0.242696438,-9.507736898,-0.774539306,2.749575288,0.198376665,Yawn,1P
-0.591400304,0.237925056,-9.51155341,-1.276226513,2.997482891,0.964781341,Yawn,1P
-0.568846524,0.233169298,-9.528662913,-2.467248247,2.558162085,3.551597537,Yawn,1P
-0.5629262,0.258094927,-9.54628454,-4.434978389,1.027831823,7.641792058,Yawn,1P
-0.585423021,0.351413625,-9.549019735,-6.095910092,-0.372852809,10.9642899,Yawn,1P
-0.624818565,0.494055242,-9.536819488,-5.551157062,0.610517929,10.78004128,Yawn,1P
-0.622996516,0.599383287,-9.521097671,-2.055262653,4.666405305,6.726175033,Yawn,1P
-0.527324548,0.587613799,-9.505824679,2.52959783,9.195227037,1.571408675,Yawn,1P
-0.361553389,0.457804187,-9.485961668,5.095801529,10.35809,-1.436889399,Yawn,1P
-0.212906892,0.283399051,-9.465541908,4.335763656,7.159996424,-1.551345926,Yawn,1P
-0.146328813,0.149479609,-9.46057504,1.87306852,2.518553928,-0.500584519,Yawn,1P
-0.155007194,0.094583577,-9.477586958,0.194659181,-0.120855279,-0.061447037,Yawn,1P
-0.193390796,0.099669631,-9.500859083,0.111312926,-0.227397646,-0.332411383,Yawn,1P
-0.229760925,0.122086089,-9.508216024,0.596811717,0.399608734,-0.326363767,Yawn,1P
-0.256881315,0.13571344,-9.495218602,0.457057345,0.735831314,0.365287298,Yawn,1P
-0.268878175,0.141260412,-9.477568253,-0.454250074,1.720796693,0.961341101,Yawn,1P
-0.244016472,0.148045602,-9.467487509,-1.342398724,4.173273936,0.519439178,Yawn,1P
-0.161078675,0.155015728,-9.455165675,-1.380753296,6.619654731,-0.705598832,Yawn,1P
-0.041392417,0.15382377,-9.426943763,-0.696604603,6.343850371,-1.261806478,Yawn,1P
0.03734625,0.149635347,-9.399467718,-0.426328597,2.540454505,-0.063950647,Yawn,1P
-0.001946202,0.166479067,-9.412357149,-1.391294865,-2.535691911,2.212892926,Yawn,1P
-0.156348323,0.218765798,-9.476871332,-2.943376416,-5.834418571,3.68559545,Yawn,1P
-0.339115415,0.285981308,-9.55298485,-3.715139352,-6.19083857,3.23675246,Yawn,1P
-0.462674241,0.33271897,-9.591315121,-3.257940018,-4.551306588,1.572202348,Yawn,1P
-0.509562023,0.348878351,-9.580978268,-2.297827978,-2.457229031,0.208963292,Yawn,1P
-0.519518199,0.353962123,-9.544805891,-1.614998205,-0.943375808,-0.157030175,Yawn,1P
-0.532950046,0.366043042,-9.504389199,-1.337229835,-0.35761982,0.029592535,Yawn,1P
-0.561237576,0.384630563,-9.467546084,-1.249068437,-0.380881003,0.121438946,Yawn,1P
-0.594765647,0.404056526,-9.444968301,-1.217184194,-0.19326078,-0.006476332,Yawn,1P
-0.62185843,0.425598266,-9.45681077,-1.205997915,0.753857373,-0.119620751,Yawn,1P
-0.641361402,0.45057372,-9.505587794,-1.184153263,1.973170404,-0.048802598,Yawn,1P
-0.662499917,0.473935569,-9.553478053,-1.080764508,2.468002056,0.233125766,Yawn,1P
-0.690755711,0.490543324,-9.554351392,-0.706877434,2.127155605,0.652696101,Yawn,1P
-0.71395511,0.497907978,-9.512866317,0.139499264,1.912266363,0.828803996,Yawn,1P
-0.712761558,0.487243881,-9.489027919,1.234915028,2.271916919,0.080174164,Yawn,1P
-0.691122732,0.445936829,-9.529483546,1.745837878,2.048574971,-1.706412728,Yawn,1P
-0.680387708,0.38437599,-9.60328404,1.012971448,0.158175958,-3.253434305,Yawn,1P
-0.696608192,0.345964081,-9.627011933,-0.295301232,-1.599884358,-2.899723073,Yawn,1P
-0.706586883,0.359911781,-9.563959177,-0.478538684,0.377569681,-0.723888822,Yawn,1P
-0.65966263,0.390176299,-9.475270277,1.106480973,5.921208611,1.373519571,Yawn,1P
-0.556216424,0.370485734,-9.44580292,2.859629463,9.046417379,2.110164788,Yawn,1P
-0.471662634,0.291909617,-9.481916953,2.779978061,4.658047097,2.192976438,Yawn,1P
-0.495980044,0.21409903,-9.519612187,0.976555815,-4.425633785,2.713860633,Yawn,1P
-0.641355774,0.184424318,-9.514309069,-0.702979095,-10.37277959,3.369926745,Yawn,1P
-0.82340807,0.188300382,-9.482981339,-1.096394743,-9.061090493,3.178351693,Yawn,1P
-0.946818996,0.190236218,-9.467510622,-0.709573037,-3.335708585,2.180009867,Yawn,1P
-0.992073775,0.187103739,-9.485986141,-0.536411797,1.380780657,1.42558066,Yawn,1P
-1.003309568,0.201593149,-9.519284986,-0.865552456,2.390814216,1.534291087,Yawn,1P
-1.018839055,0.241948122,-9.535380598,-1.319715835,0.929679389,2.045642597,Yawn,1P
-1.041312924,0.286349772,-9.529025607,-1.450868546,-0.123886641,2.181252512,Yawn,1P
-1.055356455,0.306566286,-9.533960521,-1.121097525,0.874691979,1.72970342,Yawn,1P
-1.04486149,0.299254474,-9.583233343,-0.598199579,3.148677499,1.113414607,Yawn,1P
-1.002849814,0.286710185,-9.657863442,-0.347333764,4.644127915,0.862577746,Yawn,1P
-0.945651631,0.287435806,-9.694501285,-0.556207022,4.176447058,1.093732038,Yawn,1P
-0.909647317,0.297085076,-9.656194446,-0.918747567,2.409570344,1.449984483,Yawn,1P
-0.917834805,0.302946518,-9.578908129,-1.039415089,0.918323474,1.553139299,Yawn,1P
-0.956523401,0.305554823,-9.528551015,-0.898957392,0.635306614,1.404832697,Yawn,1P
-0.993826773,0.316047837,-9.524680017,-0.711327866,1.305404222,1.20550234,Yawn,1P
-1.008263218,0.336960799,-9.531836816,-0.506377969,2.17046008,0.92297811,Yawn,1P
-0.992966632,0.354725738,-9.52100311,-0.183436624,2.814165207,0.338131414,Yawn,1P
-0.950436449,0.352550634,-9.508563893,0.113752845,3.258785676,-0.454098715,Yawn,1P
-0.892939188,0.325989536,-9.521986174,0.079053909,3.549491126,-0.88945707,Yawn,1P
-0.835342133,0.284983321,-9.550872568,-0.250778173,3.578129337,-0.51725484,Yawn,1P
-0.784868025,0.246764047,-9.558932915,-0.488873557,3.262803877,0.395369745,Yawn,1P
-0.748789375,0.229412065,-9.537847971,-0.548584559,2.675771477,1.106189579,Yawn,1P
-0.74217271,0.245352913,-9.520465543,-0.845288919,1.995017926,1.187037862,Yawn,1P
-0.767218304,0.292664582,-9.532986361,-1.582663849,1.251127855,0.825709937,Yawn,1P
-0.80092851,0.350298779,-9.560069863,-2.346565343,-0.151407866,0.424223935,Yawn,1P
-0.833569427,0.387086944,-9.571896178,-2.742151531,-3.046568236,0.226195966,Yawn,1P
-0.893369173,0.385344891,-9.558635739,-2.728696085,-6.23646645,0.348315522,Yawn,1P
-0.982872007,0.357070383,-9.522744558,-1.880837365,-5.220049054,0.818545023,Yawn,1P
-1.016287773,0.325980803,-9.474149246,0.555923654,3.62448168,1.405281791,Yawn,1P
-0.889200401,0.293059896,-9.449692266,3.935361544,16.60235544,1.654901265,Yawn,1P
-0.606367678,0.238065873,-9.487960667,5.732530356,23.94706665,1.346829637,Yawn,1P
-0.288997981,0.158853834,-9.562638991,4.21323936,19.86959336,0.805131877,Yawn,1P
-0.063497309,0.086990004,-9.591686071,0.787472716,8.873694654,0.599461481,Yawn,1P
0.022030155,0.056277827,-9.535782985,-1.616148033,0.076462172,1.06081184,Yawn,1P
-0.001854733,0.072292891,-9.445496496,-1.89058383,-2.207161347,2.159742093,Yawn,1P
-0.062124164,0.115271547,-9.396230809,-1.303649873,-0.254302394,3.554470838,Yawn,1P
-0.090967372,0.158405914,-9.411567092,-1.278715751,2.003093407,4.574757333,Yawn,1P
-0.070923453,0.184805982,-9.458522925,-1.851145275,2.816686412,4.521602567,Yawn,1P
-0.034659672,0.198487126,-9.489895783,-2.267943921,2.535942073,3.332150384,Yawn,1P
-0.015022566,0.21639109,-9.484615823,-2.18299054,2.076167029,1.775174949,Yawn,1P
-0.008769894,0.244198976,-9.462336148,-1.869734503,1.948046342,0.749892481,Yawn,1P
0.006400018,0.268529993,-9.458635471,-1.633991725,1.997818304,0.490830528,Yawn,1P
0.037376856,0.278314323,-9.479672339,-1.46859625,1.721497387,0.55109214,Yawn,1P
0.065456277,0.28069526,-9.494769697,-1.289426086,0.881096775,0.410234191,Yawn,1P
0.057740249,0.286961278,-9.483850047,-1.176524505,-0.257046661,-0.001204687,Yawn,1P
-0.008586444,0.296699117,-9.469833532,-1.198611504,-1.224534634,-0.291500758,Yawn,1P
-0.114939513,0.306725517,-9.483217395,-1.176057425,-1.601008086,-0.084481733,Yawn,1P
-0.202227014,0.321955732,-9.51604448,-0.87743556,-1.102849863,0.461046365,Yawn,1P
-0.227073655,0.344938864,-9.537566468,-0.482441379,0.018449605,0.715841416,Yawn,1P
-0.209939711,0.366541752,-9.538188019,-0.59743533,0.70232456,0.301784468,Yawn,1P
-0.208610048,0.380613658,-9.531846714,-1.512819777,0.017976904,-0.365106912,Yawn,1P
-0.254319925,0.398805804,-9.526311498,-2.536905004,-1.348334802,-0.496155446,Yawn,1P
-0.324587495,0.435250268,-9.512499317,-2.540359654,-1.426929843,0.126133675,Yawn,1P
-0.368536622,0.479542689,-9.483149697,-1.314208933,0.58827604,0.894263815,Yawn,1P
-0.359477609,0.500760167,-9.452215863,0.042731148,2.923993448,1.141406951,Yawn,1P
-0.3298486,0.484327169,-9.44537478,0.366550556,3.099574861,0.917269919,Yawn,1P
-0.342428358,0.454627298,-9.46832258,-0.26063933,0.871157728,0.807915365,Yawn,1P
-0.420038176,0.449441571,-9.497648368,-0.7829613,-1.504291206,1.100625402,Yawn,1P
-0.517991987,0.474586805,-9.510397625,-0.540878433,-1.856337332,1.418873279,Yawn,1P
-0.572779509,0.495889526,-9.508878494,0.089719308,-0.241716222,1.308787472,Yawn,1P
-0.566202952,0.478871432,-9.507996083,0.419448387,1.570769822,0.93044782,Yawn,1P
-0.532806757,0.426285254,-9.510753858,0.325164026,2.14319034,0.851732041,Yawn,1P
-0.512787306,0.371789636,-9.508435471,0.178339961,1.56700495,1.271817955,Yawn,1P
-0.51429316,0.347130503,-9.498880268,0.178876099,0.845707794,1.789660131,Yawn,1P
-0.526334336,0.361901992,-9.4908129,0.067001165,0.475914225,1.951429467,Yawn,1P
-0.554633037,0.40197267,-9.490307168,-0.493482087,-0.049422251,1.768487745,Yawn,1P
-0.625097346,0.436210192,-9.49457161,-1.396784634,-1.299361307,1.607678111,Yawn,1P
-0.743372949,0.438085217,-9.500455986,-2.10170738,-2.816930285,1.717843598,Yawn,1P
-0.863870187,0.416524716,-9.509980266,-2.178502146,-3.396037245,1.996851106,Yawn,1P
-0.921889428,0.414967051,-9.523277388,-1.720504792,-2.509135716,2.2000262,Yawn,1P
-0.902813382,0.462784365,-9.530234914,-1.159923127,-1.111165941,2.245215362,Yawn,1P
-0.865365705,0.535912009,-9.517410742,-0.839931023,-0.690212031,2.203150704,Yawn,1P
-0.88497266,0.582947744,-9.486507894,-0.843465475,-1.54170646,2.041073647,Yawn,1P
-0.979109879,0.583707105,-9.458260079,-1.048309363,-2.253552529,1.606059589,Yawn,1P
-1.09652362,0.564920414,-9.452400619,-1.208799139,-1.221320922,0.985183911,Yawn,1P
-1.17308427,0.562230209,-9.469453337,-1.083782184,1.257476388,0.643573042,Yawn,1P
-1.187804096,0.581589603,-9.495125458,-0.626737142,2.897077818,0.926606393,Yawn,1P
-1.172907155,0.597944552,-9.51540801,-0.131476518,1.886367081,1.577386378,Yawn,1P
-1.181687635,0.586093867,-9.524076817,-0.170886838,-0.950325226,2.050461774,Yawn,1P
-1.237974591,0.554572477,-9.52285539,-1.130880304,-2.911821135,2.169703624,Yawn,1P
-1.30871638,0.543889925,-9.520097699,-2.520264866,-1.941197755,2.151595172,Yawn,1P
-1.335656656,0.579165716,-9.525157971,-2.916719056,1.897665026,2.129032932,Yawn,1P
-1.291568141,0.629578169,-9.538548272,-1.140901088,6.789266094,2.061767486,Yawn,1P
-1.187230072,0.632312276,-9.548335919,2.289004072,10.55712679,2.027359711,Yawn,1P
-1.030343435,0.557078458,-9.539097336,5.280716465,12.42811399,2.152052381,Yawn,1P
-0.807149104,0.431856915,-9.506838858,6.160189805,13.93128044,2.272604017,Yawn,1P
-0.51246367,0.304672195,-9.466347993,5.220354791,16.84997527,2.09211928,Yawn,1P
-0.185188841,0.199594161,-9.439640455,3.768064981,19.41999772,1.679555008,Yawn,1P
0.091776177,0.120326603,-9.433163417,2.171493768,16.7573727,1.441152061,Yawn,1P
0.233784379,0.079488395,-9.433226608,-0.073146183,7.304604726,1.580816272,Yawn,1P
0.214220135,0.099175117,-9.429630991,-2.676076534,-3.401479223,1.894820277,Yawn,1P
0.089435272,0.179547831,-9.431720046,-4.357225203,-8.396906018,2.118933503,Yawn,1P
-0.045466902,0.284089411,-9.449864528,-4.41054128,-6.760575592,2.183962943,Yawn,1P
-0.129718422,0.365357448,-9.47429885,-3.404694408,-2.71172994,2.024867295,Yawn,1P
-0.16196947,0.399494336,-9.488482798,-2.25879734,0.43733644,1.443605264,Yawn,1P
-0.165137641,0.395394729,-9.492934195,-1.417543725,2.401445629,0.471855391,Yawn,1P
-0.153480338,0.380632512,-9.497993215,-0.958500019,3.609374869,-0.301419309,Yawn,1P
-0.137614961,0.380781143,-9.500399707,-0.873559305,3.780202042,-0.193199742,Yawn,1P
-0.131542732,0.403032959,-9.485653258,-1.049476353,2.846622764,0.735793435,Yawn,1P
-0.136356555,0.433714319,-9.453197504,-1.233390852,1.661888118,1.620492575,Yawn,1P
-0.134716512,0.453036472,-9.425926736,-1.177537198,1.198848418,1.64935096,Yawn,1P
-0.115798953,0.453777414,-9.42864293,-0.827746487,1.506477775,0.789800237,Yawn,1P
-0.093522966,0.44552896,-9.459852351,-0.386263835,1.71873057,-0.334087195,Yawn,1P
-0.093603928,0.442832213,-9.489757241,-0.175821519,0.880130659,-1.114719378,Yawn,1P
-0.133909384,0.452319587,-9.490018298,-0.402120638,-1.245659816,-1.509350839,Yawn,1P
-0.216104353,0.470021159,-9.467866093,-0.990313659,-3.683764755,-1.882725022,Yawn,1P
-0.321897281,0.486300989,-9.467208846,-1.516259725,-4.446200947,-2.138918618,Yawn,1P
-0.421013332,0.493119767,-9.51986822,-1.32682586,-2.29215266,-1.33486421,Yawn,1P
-0.496845557,0.490486435,-9.586271801,-0.119279851,0.96578895,1.10004185,Yawn,1P
-0.560702302,0.484512465,-9.574108184,1.423622034,1.427961829,3.904560921,Yawn,1P
-0.635217671,0.47529676,-9.451541391,2.03680431,-2.120011764,4.849656261,Yawn,1P
-0.734665864,0.453614775,-9.315615498,1.217713357,-6.092091408,3.316164667,Yawn,1P
-0.863834092,0.419406671,-9.296576825,-0.232873893,-6.614107662,1.064093627,Yawn,1P
-1.018002977,0.396223185,-9.407542816,-1.25050411,-4.349153409,0.134173035,Yawn,1P
-1.17555351,0.412204434,-9.536294128,-1.598263516,-2.769632829,0.799256415,Yawn,1P
-1.303381054,0.46717033,-9.579257552,-1.634799465,-3.120357576,1.893193049,Yawn,1P
-1.379140885,0.528544395,-9.541406981,-1.534165604,-3.333848283,2.395778365,Yawn,1P
-1.405448281,0.559790479,-9.498669037,-1.222774397,-1.454278458,2.179603269,Yawn,1P
-1.402191053,0.546528739,-9.497361479,-0.767388718,1.789055718,1.667053917,Yawn,1P
-1.388892545,0.499270022,-9.516667265,-0.357570041,4.269183554,1.318472103,Yawn,1P
-1.372001664,0.443588346,-9.518190941,-0.044204466,5.060331983,1.352632318,Yawn,1P
-1.344057032,0.408488126,-9.500459445,0.216197491,4.919438884,1.652025097,Yawn,1P
-1.295535288,0.411092142,-9.490412729,0.392012387,4.845860471,1.907171121,Yawn,1P
-1.228348864,0.44461655,-9.500401137,0.427606775,5.050030747,1.89193771,Yawn,1P
-1.154835502,0.481683919,-9.517152512,0.318761324,5.185034733,1.607624589,Yawn,1P
-1.085782046,0.490211246,-9.526791379,0.030811096,4.924219831,1.258887488,Yawn,1P
-1.027289256,0.454828576,-9.529435658,-0.484630461,4.201757588,1.095059541,Yawn,1P
-0.986098158,0.395660704,-9.529365486,-1.070176045,3.285114956,1.139609816,Yawn,1P
-0.965336506,0.359222521,-9.527626462,-1.344798253,2.725271552,1.113003825,Yawn,1P
-0.956280923,0.374591288,-9.526890448,-1.14704114,2.844431495,0.779776195,Yawn,1P
-0.945803947,0.426738387,-9.532011039,-0.927150123,3.085473406,0.315957145,Yawn,1P
-0.930045492,0.486044192,-9.542854048,-1.323780018,2.457664513,0.184174656,Yawn,1P
-0.911901621,0.540921644,-9.55219443,-2.110817897,1.296631788,0.662965621,Yawn,1P
-0.886956539,0.575457822,-9.551710116,-1.918500019,2.060331209,1.549885123,Yawn,1P
-0.836357522,0.545722258,-9.540558944,0.289969008,6.800486657,2.291832421,Yawn,1P
-0.736477605,0.430218062,-9.530161826,3.393413986,13.26400044,2.420884252,Yawn,1P
-0.58884459,0.291969745,-9.534923147,4.650714056,15.29209604,1.950201966,Yawn,1P
-0.44720074,0.232576332,-9.553077374,2.669729334,9.094976333,1.388474851,Yawn,1P
-0.389698265,0.277520365,-9.565297734,-0.729895435,-1.478320961,1.305963716,Yawn,1P
-0.43767744,0.349706233,-9.558971491,-2.213137933,-7.60722357,1.746831584,Yawn,1P
-0.51425327,0.356672948,-9.543272431,-0.1696647,-3.624614767,2.073827979,Yawn,1P
-0.509526234,0.267702116,-9.532694411,3.773297115,7.396806247,1.644711288,Yawn,1P
-0.390094776,0.120992697,-9.528931266,5.821445484,15.54472727,0.692129645,Yawn,1P
-0.233947167,0.002152167,-9.528716795,3.001507023,12.8550166,0.133575894,Yawn,1P
-0.149247756,0.001723727,-9.533704411,-3.596456759,1.946207282,0.338071641,Yawn,1P
-0.158003694,0.139551376,-9.539125358,-8.782644003,-5.705874209,0.639088425,Yawn,1P
-0.174595787,0.323626736,-9.528569725,-8.017811572,-2.434765948,0.529972601,Yawn,1P
-0.114203268,0.421217657,-9.497575168,-2.414249331,6.333397402,0.73724043,Yawn,1P
-0.008501808,0.389420874,-9.472322021,2.204419792,8.590710075,2.198547007,Yawn,1P
0.019059767,0.317476904,-9.485788454,1.56834833,0.547959321,4.303446249,Yawn,1P
-0.09922147,0.323950114,-9.534775906,-2.769140537,-9.127790325,5.283805827,Yawn,1P
-0.285983709,0.430400534,-9.576837747,-5.983554546,-10.50748633,4.410579774,Yawn,1P
-0.40456548,0.560334092,-9.576998488,-5.59898021,-3.650696436,2.820647914,Yawn,1P
-0.407515308,0.641400556,-9.54181166,-3.203065396,3.615767818,1.941294414,Yawn,1P
-0.361083837,0.667469922,-9.499606951,-1.33304059,5.686662255,1.869879674,Yawn,1P
-0.344996432,0.667270352,-9.47082154,-0.651327351,3.404472134,1.688472123,Yawn,1P
-0.380488896,0.657563173,-9.469104912,-0.542297958,0.137290319,0.948902163,Yawn,1P
-0.449668134,0.643825814,-9.498820778,-0.849645227,-2.425702846,0.35674316,Yawn,1P
-0.530083717,0.640723751,-9.531467929,-1.796352586,-4.060707593,0.835399069,Yawn,1P
-0.599337952,0.665154366,-9.520546077,-2.801964448,-4.332974608,2.113288485,Yawn,1P
-0.646545294,0.710290968,-9.467010161,-2.67848611,-2.992680149,2.751802152,Yawn,1P
-0.690261456,0.745632662,-9.435061428,-1.24722289,-1.100515105,1.830784498,Yawn,1P
-0.75619037,0.75188183,-9.47110648,0.083826219,-0.178916595,0.10901402,Yawn,1P
-0.83502981,0.743651411,-9.537007409,-0.077672907,-0.384799566,-0.956064994,Yawn,1P
-0.888345653,0.7468528,-9.557846039,-1.303718102,-0.513142852,-0.887948754,Yawn,1P
-0.896786,0.763568354,-9.51525326,-1.73696006,0.213019629,-0.321007906,Yawn,1P
-0.882222088,0.771666544,-9.461554258,-0.352597867,1.198176688,0.130408995,Yawn,1P
-0.879473029,0.753132073,-9.453201106,1.654000881,1.689200722,0.419033401,Yawn,1P
-0.896015302,0.711304233,-9.498838569,2.298009279,2.329919918,0.652626216,Yawn,1P
-0.899599722,0.661342067,-9.568936865,1.403678374,4.441886177,0.768902341,Yawn,1P
-0.845234099,0.611351696,-9.626604661,0.774603136,7.427787778,0.69262528,Yawn,1P
-0.729944649,0.555645825,-9.64026131,1.596113932,8.04404782,0.463375077,Yawn,1P
-0.62887026,0.485861058,-9.597371912,2.857277743,3.832017422,0.133253737,Yawn,1P
-0.646977606,0.407797837,-9.531066868,2.902206859,-2.840514126,-0.20545138,Yawn,1P
-0.801940941,0.345542113,-9.50673477,1.507357844,-6.065099345,-0.228448705,Yawn,1P
-0.974985913,0.326144809,-9.54777074,-0.25513547,-2.690754618,0.410198724,Yawn,1P
-1.019042245,0.35575202,-9.596660672,-1.432846439,4.008119672,1.460947085,Yawn,1P
-0.908989493,0.408106729,-9.586530227,-1.821300428,8.078517431,2.079453254,Yawn,1P
-0.752291014,0.442623987,-9.529807768,-1.683693565,7.113607553,1.760918229,Yawn,1P
-0.660683407,0.442533515,-9.495695927,-1.42360581,3.480738045,0.95789745,Yawn,1P
-0.652335053,0.432497368,-9.516021668,-1.394037933,0.499923808,0.553565523,Yawn,1P
-0.683444311,0.451195172,-9.554960078,-1.697614772,-0.769542106,1.003591412,Yawn,1P
-0.727536784,0.509906882,-9.567677811,-2.135141174,-1.188688192,2.052437977,Yawn,1P
-0.78877669,0.583675419,-9.551736969,-2.442857528,-1.638997303,2.975543857,Yawn,1P
-0.863377727,0.638682549,-9.529989003,-2.560090414,-2.135661271,3.142021066,Yawn,1P
-0.932627009,0.662714466,-9.510238904,-2.539410282,-2.196952341,2.640669759,Yawn,1P
-0.990939917,0.669233821,-9.485329945,-2.213490782,-1.52783689,2.20416574,Yawn,1P
-1.046453527,0.673693675,-9.461627901,-1.284281569,-0.527419907,2.277008521,Yawn,1P
-1.096826878,0.671428795,-9.463054381,-0.001230496,-0.314410375,2.442028505,Yawn,1P
-1.137427228,0.64732397,-9.501952066,0.652777781,-1.54466629,1.999903348,Yawn,1P
-1.180818366,0.604684717,-9.55359051,0.161400879,-2.347602991,0.858718099,Yawn,1P
-1.217690016,0.569172838,-9.567063731,-0.299410289,1.437541731,-0.26037614,Yawn,1P
-1.167544449,0.557230588,-9.514509324,1.101971334,11.31291494,-0.351453333,Yawn,1P
-0.938637395,0.55186556,-9.433629137,4.233705993,21.59382018,0.956047483,Yawn,1P
-0.552793758,0.522429825,-9.398759244,6.44353237,23.78615985,2.780035086,Yawn,1P
-0.152348167,0.464777632,-9.435262204,5.461971777,16.91918283,3.591059335,Yawn,1P
0.135402503,0.405049791,-9.48761852,2.250281432,9.531139652,2.718503953,Yawn,1P
0.29512037,0.358768555,-9.490684144,-0.072640274,8.95849272,1.046453188,Yawn,1P
0.381407531,0.307453426,-9.44445879,0.037870905,12.37323784,0.08043569,Yawn,1P
0.438976282,0.233883005,-9.395029774,0.966062524,11.77468921,0.536721193,Yawn,1P
0.484271446,0.164969424,-9.371004836,0.326997324,4.921019485,1.878492006,Yawn,1P
0.514062446,0.154010845,-9.372378679,-2.060181577,-2.85997659,2.958958444,Yawn,1P
0.497426612,0.222158176,-9.399107467,-4.347490115,-6.380897292,3.041290894,Yawn,1P
0.391745439,0.337528724,-9.44762015,-5.205133295,-5.963222774,2.402804145,Yawn,1P
0.200987289,0.45601375,-9.488322276,-5.083491546,-4.768608042,1.927932458,Yawn,1P
0.00099735,0.562540382,-9.487791356,-4.867174881,-4.083853206,1.876992218,Yawn,1P
-0.120433794,0.657657489,-9.453986982,-4.371124212,-2.957852016,1.354425101,Yawn,1P
-0.143065772,0.723128112,-9.427899223,-2.930900422,-0.860802484,-0.364319506,Yawn,1P
-0.120459441,0.734652081,-9.430755914,-0.894326671,1.174077878,-2.296588575,Yawn,1P
-0.116966878,0.706978343,-9.448932358,0.437442113,1.853855446,-2.647653441,Yawn,1P
-0.15471794,0.689880342,-9.470105141,0.350972494,1.046027613,-1.27501248,Yawn,1P
-0.214577319,0.706020481,-9.498741183,-0.410417168,-0.175910922,-0.078311733,Yawn,1P
-0.264372766,0.719792786,-9.526588696,-0.482833782,-0.475779931,-0.56457441,Yawn,1P
-0.283604901,0.68467374,-9.524208616,0.629302813,0.468707717,-1.96874763,Yawn,1P
-0.285572658,0.604888492,-9.484774838,1.955428439,1.168322009,-2.323458317,Yawn,1P
-0.320940931,0.535237055,-9.450635672,2.012593323,-0.445374854,-0.83044481,Yawn,1P
-0.426392616,0.525548374,-9.469450005,0.60780533,-3.723313995,1.376144283,Yawn,1P
-0.549611794,0.570181448,-9.535098903,-0.42667023,-3.872249573,2.656673978,Yawn,1P
-0.55777065,0.607197162,-9.589899125,0.973286679,3.487826148,2.564931493,Yawn,1P
-0.36504904,0.569982056,-9.582008271,4.252951035,15.24503634,1.92408559,Yawn,1P
-0.048981521,0.452219739,-9.515589302,6.091846997,21.24395945,1.568998876,Yawn,1P
0.198287672,0.321800603,-9.446220932,3.976118243,14.89398683,1.541389067,Yawn,1P
0.247879576,0.258820241,-9.424782293,-0.774133928,1.422905918,1.51782911,Yawn,1P
0.138971836,0.283265163,-9.449062329,-4.516945337,-7.943936066,1.485879036,Yawn,1P
-0.001107373,0.354209058,-9.478147613,-5.223981293,-8.436374844,1.684073995,Yawn,1P
-0.100712289,0.42515341,-9.481762118,-3.928895905,-4.671266972,2.142194757,Yawn,1P
-0.176897418,0.478940184,-9.459840838,-2.72563125,-2.605699526,2.600288922,Yawn,1P
-0.261873006,0.522736813,-9.432098689,-2.430894566,-2.990114171,2.800916091,Yawn,1P
-0.352346768,0.57363174,-9.429384388,-2.396757821,-3.2039607,2.667014833,Yawn,1P
-0.428490004,0.638581191,-9.473841043,-1.892230771,-2.087710603,2.242623234,Yawn,1P
-0.483224654,0.691493514,-9.542902176,-1.016352358,-0.913071433,1.617747606,Yawn,1P
-0.522365124,0.688472828,-9.57266959,-0.355866963,-0.941443206,0.947205632,Yawn,1P
-0.554514106,0.623652935,-9.52263436,-0.288157649,-2.027196983,0.435025249,Yawn,1P
-0.592019125,0.551285236,-9.426028591,-0.749490935,-3.469881191,0.183472171,Yawn,1P
-0.654898031,0.535450633,-9.359517298,-1.353236373,-4.729720769,0.127032177,Yawn,1P
-0.757922629,0.588786374,-9.369505633,-1.648701211,-5.099968521,0.261925492,Yawn,1P
-0.886003927,0.666605645,-9.435727321,-1.507548051,-3.936088365,0.822741898,Yawn,1P
-0.995312633,0.711520002,-9.501694867,-1.26751697,-1.674205809,1.960647186,Yawn,1P
-1.053337711,0.704199959,-9.531730935,-1.286829116,0.281031421,3.267951241,Yawn,1P
-1.067926156,0.676921322,-9.532884971,-1.429541032,1.176466244,3.93746887,Yawn,1P
-1.063886566,0.674238276,-9.529241811,-1.230438899,1.765158047,3.558844128,Yawn,1P
-1.047381236,0.702383373,-9.532651842,-0.476594093,2.945390255,2.575494873,Yawn,1P
-1.014354285,0.728148602,-9.539685828,0.592261609,3.900709835,1.763897564,Yawn,1P
-0.982524264,0.720915392,-9.540268543,1.505791131,2.54441825,1.37955813,Yawn,1P
-0.989738989,0.676667145,-9.525496014,1.775061834,-1.63063594,1.04303702,Yawn,1P
-1.05536669,0.608120648,-9.500475122,1.159454602,-5.751874325,0.450707437,Yawn,1P
-1.15095843,0.537697198,-9.48995177,0.076566675,-5.744090767,-0.083380485,Yawn,1P
-1.212297989,0.495448016,-9.513149108,-0.475699365,-0.483180618,-0.017181552,Yawn,1P
-1.185426619,0.493260096,-9.547745911,0.183986919,6.926472054,0.642194121,Yawn,1P
-1.068638668,0.499165887,-9.539736808,1.707522382,12.21804364,1.311677175,Yawn,1P
-0.904010879,0.462886521,-9.467932979,3.137212823,13.87099418,1.585901781,Yawn,1P
-0.719930432,0.371686141,-9.387062569,3.770220618,13.79956179,1.609791445,Yawn,1P
-0.502480827,0.264197547,-9.379638701,3.398464652,14.39449432,1.579892412,Yawn,1P
-0.249623215,0.188328254,-9.464236348,2.126093935,15.29319825,1.348922637,Yawn,1P
-0.027348869,0.161701972,-9.574124196,0.29637615,13.63950534,0.838380619,Yawn,1P
0.080505845,0.175596947,-9.625243553,-1.604550182,7.865091929,0.435359907,Yawn,1P
0.069951775,0.219378202,-9.58624562,-3.079637893,0.606729936,0.555581793,Yawn,1P
0.015021874,0.286787906,-9.491518933,-3.654453037,-3.334773624,1.079145228,Yawn,1P
-0.024277425,0.363267695,-9.408092443,-3.133090083,-2.025005208,1.580002707,Yawn,1P
-0.045504809,0.421554488,-9.386383546,-1.983814554,1.824120923,1.858622801,Yawn,1P
-0.062893845,0.439446339,-9.426394682,-1.082950624,4.264115496,1.915877191,Yawn,1P
-0.0715949,0.421594652,-9.483457317,-0.904996717,3.982701863,1.673809419,Yawn,1P
-0.062552618,0.397134834,-9.508494263,-1.209588993,2.454662673,1.098604974,Yawn,1P
-0.043118398,0.393196751,-9.489068121,-1.503289547,1.511276065,0.435430051,Yawn,1P
-0.028964871,0.413698432,-9.453768231,-1.520251675,1.629684373,0.01584059,Yawn,1P
-0.027489372,0.442123976,-9.437983575,-1.288014448,2.111817409,-0.086363464,Yawn,1P
-0.034637264,0.459933557,-9.450700038,-1.024992898,2.048657828,-0.019267609,Yawn,1P
-0.043267583,0.464803542,-9.472816623,-0.993084126,1.00661323,0.114230289,Yawn,1P
-0.057158279,0.473017704,-9.479998415,-1.212284555,-0.670136001,0.269128625,Yawn,1P
-0.094747214,0.497591182,-9.468939277,-1.317605326,-2.047930684,0.285865642,Yawn,1P
-0.164498417,0.524797798,-9.462467653,-0.897120999,-2.427929879,0.002346544,Yawn,1P
-0.239423709,0.524993291,-9.478439002,0.027471591,-2.043443982,-0.433607436,Yawn,1P
-0.282190149,0.489528279,-9.498553211,0.94161876,-1.791429817,-0.658596187,Yawn,1P
-0.304895251,0.445434495,-9.494543047,1.236265145,-2.46852676,-0.601779431,Yawn,1P
-0.377868769,0.427430492,-9.483867567,0.793438999,-4.090473589,-0.645967619,Yawn,1P
-0.544399707,0.43782435,-9.516712897,0.291860384,-5.106589086,-1.087924164,Yawn,1P
-0.725084119,0.436810279,-9.591606239,0.552351956,-2.772522545,-1.514156551,Yawn,1P
-0.758175769,0.382232768,-9.630501344,1.28965949,3.484939651,-0.972877792,Yawn,1P
-0.584523156,0.289576842,-9.574040949,1.134121439,8.981668903,0.944519055,Yawn,1P
-0.357422455,0.236786352,-9.4650074,-0.510245794,7.329458996,3.278619019,Yawn,1P
-0.297663224,0.282321625,-9.395840019,-2.303161468,-1.558011127,4.421708565,Yawn,1P
-0.459542022,0.38796752,-9.403030011,-2.516293522,-10.06718845,3.728880206,Yawn,1P
-0.70906202,0.454271105,-9.450075544,-1.19971083,-11.32686167,2.015138321,Yawn,1P
-0.904207319,0.429517844,-9.486962376,0.092148695,-6.407087952,0.5143217,Yawn,1P
-1.010827491,0.358021468,-9.493471143,0.313847593,-1.221609515,-0.160564431,Yawn,1P
-1.05345913,0.319961815,-9.482580154,-0.178429751,1.126447355,-0.062137545,Yawn,1P
-1.045079683,0.341351018,-9.484141585,-0.508799659,2.11146604,0.510244955,Yawn,1P
-0.995731422,0.371762611,-9.514099966,-0.327651704,3.483292765,1.204517103,Yawn,1P
-0.935469422,0.348393705,-9.550167358,0.090734767,4.620700047,1.642318242,Yawn,1P
-0.891834786,0.271920399,-9.552412098,0.359467883,4.471876083,1.584051193,Yawn,1P
-0.866809273,0.205474764,-9.514035633,0.327850293,3.633166073,1.158405319,Yawn,1P
-0.850737052,0.199762168,-9.472661155,0.032819488,3.345147848,0.801720725,Yawn,1P
-0.836163065,0.238975317,-9.462659067,-0.448991936,3.677649198,0.836219376,Yawn,1P
-0.812181862,0.270569654,-9.477684588,-1.015205347,3.745287081,1.148952962,Yawn,1P
-0.772149294,0.269877005,-9.492663311,-1.511410081,3.102427532,1.418045163,Yawn,1P
-0.733401561,0.257339528,-9.49971209,-1.79091491,2.106125045,1.589011113,Yawn,1P
-0.725068095,0.265013946,-9.504362189,-1.800902314,1.310351777,1.865571984,Yawn,1P
-0.748262457,0.305244445,-9.506228163,-1.590403941,1.224659686,2.203361363,Yawn,1P
-0.766297895,0.363715441,-9.504068896,-1.250299076,2.162689726,2.203192607,Yawn,1P
-0.745994448,0.407334422,-9.507225328,-0.86199067,3.322600863,1.778526361,Yawn,1P
-0.705063795,0.405617787,-9.525774762,-0.480055119,2.541649388,1.575123209,Yawn,1P
-0.709145891,0.358084782,-9.555741213,-0.146928402,-1.388746107,2.209316227,Yawn,1P
-0.808359061,0.299586539,-9.58045323,0.007819094,-6.295541099,3.254131334,Yawn,1P
-0.978345254,0.272865548,-9.583237147,-0.340761997,-8.683098169,3.615268946,Yawn,1P
-1.14797955,0.296062685,-9.562044558,-1.457936319,-8.211609729,2.947843542,Yawn,1P
-1.278347156,0.354377766,-9.532624933,-2.841618991,-6.803790339,2.044078862,Yawn,1P
-1.364040339,0.413112982,-9.510227565,-2.982258208,-2.982483054,1.608825142,Yawn,1P
-1.356388626,0.434745876,-9.495423215,-0.659540288,7.464150359,1.301288317,Yawn,1P
-1.166875212,0.398778019,-9.487821486,3.105846112,22.39723189,0.463386728,Yawn,1P
-0.795160358,0.324437821,-9.495488704,5.209958095,30.49287419,-0.642652009,Yawn,1P
-0.400878594,0.266870293,-9.515723781,3.585504174,23.1770255,-0.9819223,Yawn,1P
-0.179135407,0.266904909,-9.529436033,-0.22753033,6.495077915,-0.07202199,Yawn,1P
-0.169573343,0.305163571,-9.530107206,-2.68295718,-4.792609913,1.381118211,Yawn,1P
-0.237218135,0.327478665,-9.533936995,-2.134175682,-3.845406364,2.298958603,Yawn,1P
-0.245097793,0.313779179,-9.547934858,-0.125973292,2.719787492,2.286435068,Yawn,1P
-0.193511225,0.296412961,-9.552320211,0.943364733,5.340880423,1.715259892,Yawn,1P
-0.172124602,0.307751869,-9.529621565,0.320997094,2.095802578,1.109158856,Yawn,1P
-0.231074686,0.338113195,-9.493164393,-1.039069512,-2.395411679,0.730283678,Yawn,1P
-0.339575188,0.359371126,-9.470345471,-1.987673323,-4.150722006,0.625207669,Yawn,1P
-0.438756767,0.367755582,-9.468602019,-2.179839938,-2.99693966,0.78676486,Yawn,1P
-0.496102907,0.382716201,-9.4746859,-1.877406625,-0.636037943,1.145453351,Yawn,1P
-0.515704014,0.414976219,-9.480342521,-1.357475054,1.571261795,1.452162422,Yawn,1P
-0.514851813,0.450796821,-9.488556996,-0.689352231,3.019795481,1.310800697,Yawn,1P
-0.49496248,0.460526979,-9.495281896,0.119084735,3.783426965,0.530541162,Yawn,1P
-0.440133842,0.420478728,-9.486451156,0.841628734,4.580685664,-0.432680639,Yawn,1P
-0.345498086,0.34357591,-9.462566421,0.900111329,6.023035142,-0.649189886,Yawn,1P
-0.233386591,0.287015145,-9.452087656,-0.210623133,7.53086724,0.225820823,Yawn,1P
-0.13764175,0.302399408,-9.483556607,-2.164022147,7.415355348,1.242828607,Yawn,1P
-0.086474808,0.376115592,-9.544638896,-3.820900252,4.406736923,1.215300871,Yawn,1P
-0.100182581,0.448079958,-9.585270701,-4.324267003,-0.750249752,0.452099023,Yawn,1P
-0.183005116,0.489845671,-9.572771285,-3.798354802,-5.000842704,0.509145902,Yawn,1P
-0.301756633,0.528265141,-9.530345855,-2.648724638,-4.566344853,1.980420666,Yawn,1P
-0.378992051,0.58568843,-9.504433992,-0.851833517,1.851668173,3.475780137,Yawn,1P
-0.332807894,0.633694592,-9.509797373,1.33258628,10.4606056,3.349975181,Yawn,1P
-0.153273268,0.623623786,-9.528422451,2.603388445,14.03539116,1.828819109,Yawn,1P
0.054287171,0.545098502,-9.543502208,1.77195589,8.147653596,0.729784153,Yawn,1P
0.127175005,0.446406132,-9.546791832,-0.427615959,-4.023123102,1.184383683,Yawn,1P
-0.022216189,0.400111455,-9.525866382,-1.717910147,-14.1084739,2.230700511,Yawn,1P
-0.32118593,0.43481461,-9.470305271,-0.757967954,-15.85815541,2.091747613,Yawn,1P
-0.596400457,0.496376911,-9.39261276,1.317505595,-9.875075449,0.560565318,Yawn,1P
-0.728008869,0.500160205,-9.335343057,2.18811495,-1.992928877,-0.700378967,Yawn,1P
-0.735381695,0.425790904,-9.345616038,0.948536305,2.329477255,-0.363527794,Yawn,1P
-0.713599487,0.334566639,-9.425907548,-1.002841836,2.259470306,0.950517904,Yawn,1P
-0.720468374,0.295334623,-9.517131029,-1.761238785,0.709395289,1.741929643,Yawn,1P
-0.746797018,0.32067089,-9.55564783,-1.083689501,0.16356809,1.60347988,Yawn,1P
-0.767375471,0.367842315,-9.542433626,-0.219264553,0.59848687,1.36430659,Yawn,1P
-0.780353363,0.373040723,-9.530321576,0.060485269,1.07538174,1.560920371,Yawn,1P
-0.794717893,0.294740257,-9.549448779,0.263512083,1.524371938,1.682826149,Yawn,1P
-0.804816034,0.156127599,-9.574442634,0.779769301,2.322766733,1.242623968,Yawn,1P
-0.794792568,0.045084018,-9.566697477,0.685199069,3.18375755,0.857092097,Yawn,1P
-0.763319992,0.048501936,-9.525517083,-1.043396119,3.489143958,1.532728814,Yawn,1P
-0.724353089,0.175989066,-9.487501711,-3.37228025,3.65389052,3.160039252,Yawn,1P
-0.674740013,0.346628546,-9.484355353,-3.515552769,5.108957749,4.400952435,Yawn,1P
-0.584167277,0.445948749,-9.50817116,-0.169255303,7.857491723,4.10406113,Yawn,1P
-0.448760477,0.406854719,-9.52084448,4.126537997,8.562633742,2.45736661,Yawn,1P
-0.348080707,0.26234149,-9.503174252,5.016675251,3.287772353,0.707657663,Yawn,1P
-0.403451206,0.125313702,-9.486380922,1.06039829,-6.736337874,-0.046755368,Yawn,1P
-0.647913331,0.095420175,-9.509291452,-4.370181699,-14.17615773,0.232387493,Yawn,1P
-0.955861705,0.176310377,-9.548234204,-6.599597752,-12.84680701,0.722596777,Yawn,1P
-1.14169504,0.291771184,-9.537243478,-4.434130149,-4.572396084,0.845426118,Yawn,1P
-1.132557306,0.370842129,-9.476374617,-0.474314503,4.077467737,0.985136844,Yawn,1P
-1.006112433,0.393112764,-9.46725488,2.725174562,10.76281647,1.710863544,Yawn,1P
-0.843286497,0.361580807,-9.587850494,5.038860829,18.74499994,2.473234809,Yawn,1P
-0.600904112,0.273376233,-9.758065708,6.973816618,28.33395379,2.077118678,Yawn,1P
-0.199382226,0.139366358,-9.803875849,7.309561772,31.74501244,0.755444088,Yawn,1P
0.28904184,0.011999322,-9.665664283,4.291152099,21.35570081,0.440182231,Yawn,1P
0.640302291,-0.041381875,-9.470031265,-1.240616531,1.535675526,2.068397038,Yawn,1P
0.697902026,-0.000925816,-9.366920389,-5.785920108,-13.48613695,3.925687811,Yawn,1P
0.524449552,0.090082826,-9.367876458,-6.871089938,-14.64479181,3.87353524,Yawn,1P
0.304579963,0.177459952,-9.388162767,-5.469694469,-6.447419036,2.102501741,Yawn,1P
0.158815242,0.243458157,-9.385726738,-4.098111992,0.710070498,0.497657713,Yawn,1P
0.08821257,0.298776757,-9.394951144,-3.820501892,1.942812379,0.207982883,Yawn,1P
0.043130487,0.355691274,-9.447714863,-3.996903791,-0.453411306,0.907195311,Yawn,1P
-0.013799079,0.422671511,-9.519281498,-3.886902325,-2.652605539,1.758423181,Yawn,1P
-0.093834324,0.502755842,-9.561030058,-3.413847419,-3.126367415,2.136899855,Yawn,1P
-0.185674362,0.580819975,-9.555386299,-2.78507614,-2.326870911,1.74553241,Yawn,1P
-0.266032606,0.629209974,-9.526091376,-2.132211871,-1.285058359,0.733993266,Yawn,1P
-0.319526079,0.638963604,-9.508377242,-1.516494156,-0.773748728,-0.363056755,Yawn,1P
-0.353456173,0.631617955,-9.515603627,-1.006224825,-0.95219134,-1.058181746,Yawn,1P
-0.395916115,0.632745695,-9.529495139,-0.708583397,-1.583715589,-1.163053544,Yawn,1P
-0.475178333,0.64798556,-9.522244904,-0.717774063,-2.506701541,-0.684830437,Yawn,1P
-0.590062416,0.669754051,-9.489771103,-0.978869363,-3.667978458,0.19833808,Yawn,1P
0.142320617,0.009653946,-9.448889732,-0.719868715,1.756926702,1.386743938,HeadNodding,1P
0.163302635,0.021387765,-9.438660768,-0.375848939,1.638177605,1.393235128,HeadNodding,1P
0.182925019,0.020200883,-9.443239424,-0.004385458,2.379907476,1.397781962,HeadNodding,1P
0.18711588,0.007958262,-9.47899964,0.041109483,2.64286256,1.200761881,HeadNodding,1P
0.164231237,-0.000950759,-9.523408839,-0.587063627,0.408609741,0.797960399,HeadNodding,1P
0.137117156,0.002307223,-9.491726968,-1.455471967,-2.821876049,0.773962023,HeadNodding,1P
0.157154129,0.010088294,-9.332579377,-1.334455386,-0.972421927,1.761231919,HeadNodding,1P
0.257617789,0.009709389,-9.172757512,0.274679074,9.632452543,3.201137131,HeadNodding,1P
0.432939503,0.002382326,-9.248943105,1.599995156,21.47632741,3.208081342,HeadNodding,1P
0.663692487,0.00363185,-9.581949745,-0.07968113,19.47139697,0.543730371,HeadNodding,1P
0.895943124,0.027190235,-9.835574851,-4.640643902,-1.649278681,-3.339486884,HeadNodding,1P
0.966945331,0.076944698,-9.698101066,-8.032457407,-27.26522777,-5.229211731,HeadNodding,1P
0.671481058,0.149737764,-9.318681938,-6.772950363,-36.92163519,-3.56524162,HeadNodding,1P
0.022441494,0.229533543,-9.111378487,-2.362858258,-26.10648279,-0.17825757,HeadNodding,1P
-0.627098874,0.278501945,-9.184011736,1.088992946,-6.844325453,1.975038598,HeadNodding,1P
-0.857050828,0.254342248,-9.270468827,2.604161157,10.46402086,2.190798018,HeadNodding,1P
-0.567814781,0.151240011,-9.236706448,4.571654736,25.19026443,2.234005753,HeadNodding,1P
-0.029084145,0.020227656,-9.308627082,7.348218725,35.95650086,3.397876246,HeadNodding,1P
0.415712301,-0.062949899,-9.65527092,7.179625446,33.85546916,4.522289487,HeadNodding,1P
0.599109151,-0.057424943,-10.02463154,1.346721832,13.50608781,3.695978759,HeadNodding,1P
0.511259409,0.017130327,-10.03755089,-6.766048498,-14.90131151,1.199623274,HeadNodding,1P
0.19546476,0.108463617,-9.689918674,-10.26727091,-32.38698496,-0.713368431,HeadNodding,1P
-0.22933431,0.166823903,-9.31576411,-6.159273302,-29.18496936,-0.879699897,HeadNodding,1P
-0.530698691,0.16247703,-9.140956206,1.217412676,-11.77918765,-0.224094743,HeadNodding,1P
-0.520890279,0.1143111,-9.13194857,4.254507873,6.316775266,0.669939555,HeadNodding,1P
-0.279816749,0.103816957,-9.245527559,-0.574720665,15.73001558,2.640529631,HeadNodding,1P
-0.081756533,0.197746981,-9.516169758,-8.990427716,13.90309202,5.362154669,HeadNodding,1P
-0.057330002,0.338552216,-9.82299667,-12.93707131,3.146803564,6.087987117,HeadNodding,1P
-0.091382029,0.382939583,-9.872641514,-9.05741437,-10.43441434,3.235166721,HeadNodding,1P
-0.113208628,0.282526066,-9.581044271,-1.955296289,-19.12434272,-0.570321445,HeadNodding,1P
-0.257387656,0.155939464,-9.237708392,1.921308354,-18.74919739,-1.670999573,HeadNodding,1P
-0.59220993,0.138538953,-9.120438269,1.459382055,-11.46920267,-0.231776433,HeadNodding,1P
-0.896377462,0.223131805,-9.168928009,0.155447064,-1.376738431,0.879945575,HeadNodding,1P
-0.902506063,0.29580357,-9.228975147,0.338504684,10.96513162,0.969967274,HeadNodding,1P
-0.630987293,0.27710217,-9.387902897,0.836860305,25.47015121,2.097033135,HeadNodding,1P
-0.309550148,0.180353626,-9.784742597,-0.232537894,35.30339052,4.944898115,HeadNodding,1P
-0.063182307,0.06802139,-10.2292485,-2.838952446,29.71734716,7.105287223,HeadNodding,1P
0.14438273,-0.000555468,-10.32431233,-5.671666372,7.270325246,6.406828895,HeadNodding,1P
0.310872462,0.00872601,-9.958354947,-7.542573636,-18.3260365,3.866198611,HeadNodding,1P
0.303483337,0.09292763,-9.455918559,-7.537959231,-30.10745985,1.99635157,HeadNodding,1P
0.026322092,0.208228977,-9.198285903,-5.367333211,-24.10060632,1.476635141,HeadNodding,1P
-0.382694018,0.29180812,-9.222601411,-2.040997732,-10.17053587,0.971640608,HeadNodding,1P
-0.627866249,0.302686549,-9.278908197,0.991605395,1.999732096,-0.218198227,HeadNodding,1P
-0.566929049,0.248823404,-9.23918657,3.228641438,11.98967332,-0.805465153,HeadNodding,1P
-0.352820384,0.176916249,-9.293526166,4.536753844,21.67389214,0.507258553,HeadNodding,1P
-0.198489524,0.129261076,-9.629672954,3.901480459,25.53103169,2.53587777,HeadNodding,1P
-0.117179961,0.106192405,-10.04438082,0.404059564,15.41040307,2.668195519,HeadNodding,1P
-0.017237121,0.084421592,-10.10680617,-4.626249104,-5.923571999,0.641123437,HeadNodding,1P
0.049902163,0.073497413,-9.712275762,-7.854512666,-23.19116473,-0.546804368,HeadNodding,1P
-0.080472144,0.118612848,-9.2527551,-7.027312535,-23.8598596,1.346918425,HeadNodding,1P
-0.423971146,0.231366019,-9.149316861,-3.353980872,-11.26367638,4.467215075,HeadNodding,1P
-0.762439572,0.354884368,-9.375128254,-0.213494594,0.982207949,5.185692678,HeadNodding,1P
-0.859907356,0.419563323,-9.559458429,0.449995084,5.068589273,2.672183152,HeadNodding,1P
-0.691471205,0.405410386,-9.468545618,-0.08899645,5.374339605,-0.406891282,HeadNodding,1P
-0.427284479,0.33858508,-9.255805325,0.695990728,9.683573446,-1.087192782,HeadNodding,1P
-0.225615317,0.255820836,-9.242586827,3.385228482,18.20689402,1.058670587,HeadNodding,1P
-0.085231106,0.178055321,-9.53197648,5.861090467,23.03669298,3.825833466,HeadNodding,1P
0.080005293,0.097609615,-9.889254597,5.500874084,16.88029552,4.658097173,HeadNodding,1P
0.259012277,0.00070635,-9.995018972,1.734710774,0.92199493,3.350267235,HeadNodding,1P
0.310172614,-0.082281063,-9.771854787,-3.35211512,-15.50060129,2.166139362,HeadNodding,1P
0.122715043,-0.082413352,-9.43913007,-6.690629724,-22.61919745,2.804001612,HeadNodding,1P
-0.247913954,0.024066043,-9.272367881,-6.740546818,-18.38685969,4.186790322,HeadNodding,1P
-0.621760233,0.168018759,-9.33518165,-4.354190343,-9.083902778,4.051012072,HeadNodding,1P
-0.822984505,0.248436634,-9.446052391,-1.029082884,-1.249203184,1.619181839,HeadNodding,1P
-0.765984166,0.21880449,-9.405347514,2.701792807,5.724386469,-2.083872987,HeadNodding,1P
-0.478059705,0.105315873,-9.244378012,6.123873994,16.5188683,-5.286378575,HeadNodding,1P
-0.069600537,-0.028390461,-9.207656675,6.927556225,29.89624194,-6.090497162,HeadNodding,1P
0.338498614,-0.120819829,-9.454893191,3.178575009,35.61836506,-3.536721225,HeadNodding,1P
0.666271451,-0.13996418,-9.820534407,-3.618643872,24.2332261,0.860732396,HeadNodding,1P
0.849208068,-0.090848902,-9.952236721,-9.304824954,-0.905087087,3.767495357,HeadNodding,1P
0.803412339,-0.00041505,-9.702895582,-10.90223955,-23.99829064,3.327669087,HeadNodding,1P
0.481633656,0.103786464,-9.308686121,-8.666554227,-30.53329584,1.137233382,HeadNodding,1P
-0.028022265,0.203982528,-9.127820626,-4.990194157,-20.14311906,0.102800219,HeadNodding,1P
-0.500586903,0.289166678,-9.253508962,-2.249284204,-4.91181413,0.977169655,HeadNodding,1P
-0.702522493,0.346110849,-9.451655868,-1.105835128,4.369692618,2.021891995,HeadNodding,1P
-0.547227979,0.358456931,-9.4613427,-0.252757071,8.061996378,1.792782065,HeadNodding,1P
-0.157800497,0.320561661,-9.289572718,1.739626622,13.3296992,1.035824443,HeadNodding,1P
0.221752848,0.249511391,-9.188613962,4.224484809,22.61391388,1.353011058,HeadNodding,1P
0.423429788,0.176085647,-9.368816849,4.799777024,29.16617446,2.794198275,HeadNodding,1P
0.490023959,0.125822467,-9.75527572,1.90848368,23.98225932,3.717953234,HeadNodding,1P
0.581304328,0.114142754,-10.03505309,-3.43443251,5.796432791,2.971765137,HeadNodding,1P
0.732144122,0.151496677,-9.952995811,-8.390010892,-16.13682567,1.398666048,HeadNodding,1P
0.760189669,0.241047664,-9.5695693,-10.36181936,-29.17615972,0.795387058,HeadNodding,1P
0.466591362,0.372207231,-9.211448369,-8.820689366,-27.7753846,1.756478589,HeadNodding,1P
-0.083768736,0.518575898,-9.132536074,-5.549927075,-16.86493103,2.944511209,HeadNodding,1P
-0.537293858,0.637612507,-9.246070975,-2.530722326,-4.55594471,2.517350673,HeadNodding,1P
-0.566821174,0.677294013,-9.279167973,0.479230413,6.669420485,0.299312968,HeadNodding,1P
-0.216315544,0.602893362,-9.182881116,5.011276198,18.85344017,-1.511371932,HeadNodding,1P
0.153305014,0.433223956,-9.221204737,10.17700658,30.00674709,-0.396810681,HeadNodding,1P
0.301828747,0.243582484,-9.563496419,11.75694769,31.86892449,3.240112015,HeadNodding,1P
0.362158193,0.113566405,-9.956126788,6.623782338,18.7944856,5.761746217,HeadNodding,1P
0.541872039,0.074867468,-9.993659952,-2.820276313,-3.892867991,4.375205035,HeadNodding,1P
0.719539917,0.124591288,-9.638104252,-10.25695229,-23.21779727,0.696347641,HeadNodding,1P
0.566161848,0.260092522,-9.258149495,-11.35655659,-29.40194804,-1.381980854,HeadNodding,1P
0.033766373,0.452109661,-9.154981468,-7.160275794,-22.26581938,-0.640075886,HeadNodding,1P
-0.495314351,0.605621495,-9.239912252,-1.901276699,-8.392279996,0.710376942,HeadNodding,1P
-0.614625842,0.616725233,-9.256209637,1.445215781,5.44172488,0.920478866,HeadNodding,1P
-0.33510375,0.482165365,-9.186566816,3.021772568,15.34443119,1.083831816,HeadNodding,1P
-0.039862272,0.316376686,-9.281128333,4.091387316,19.19587671,2.841053624,HeadNodding,1P
-0.032412004,0.247260707,-9.669730396,4.35421257,15.64764458,5.160989157,HeadNodding,1P
-0.219788344,0.303862626,-10.09033764,2.260694689,5.217111356,4.982544647,HeadNodding,1P
-0.307155072,0.406740554,-10.1419571,-2.191615238,-8.502976255,1.214199635,HeadNodding,1P
-0.239139747,0.467097796,-9.768920926,-6.31382136,-19.56493879,-3.141847202,HeadNodding,1P
-0.277973008,0.484899897,-9.336431956,-7.247438857,-22.8103045,-4.117377356,HeadNodding,1P
-0.6019708,0.525305693,-9.18558684,-5.021449564,-17.59046216,-1.57549814,HeadNodding,1P
-1.003922362,0.607319042,-9.25678898,-2.082311666,-7.676984469,0.792414055,HeadNodding,1P
-1.130206789,0.664865348,-9.270038824,0.017083268,3.371504211,0.536380333,HeadNodding,1P
-0.918723152,0.633231055,-9.180344843,2.150184671,14.76429755,-0.280893372,HeadNodding,1P
-0.63173319,0.533106212,-9.250589143,5.297015361,24.93073733,1.743158163,HeadNodding,1P
-0.482180849,0.439425598,-9.634457795,7.92645162,28.36441057,5.945010655,HeadNodding,1P
-0.398977197,0.389293413,-10.07003325,7.189469812,19.82444265,7.658177161,HeadNodding,1P
-0.225119871,0.361346356,-10.1434163,2.571323839,1.712940741,4.232042272,HeadNodding,1P
-0.020325953,0.345350448,-9.790586737,-2.937127603,-15.26282774,-1.158514466,HeadNodding,1P
-0.010310802,0.375853703,-9.366391901,-5.785066431,-20.62413431,-3.444704918,HeadNodding,1P
-0.243421779,0.460502929,-9.190992414,-5.162190105,-13.18217321,-1.88584593,HeadNodding,1P
-0.477556646,0.524711131,-9.208542892,-2.724690673,-0.511365715,0.016041149,HeadNodding,1P
-0.508763688,0.492734116,-9.220223306,0.132902124,9.612844217,0.138026193,HeadNodding,1P
-0.447323505,0.40057181,-9.272534988,3.241328667,14.44805846,0.414375774,HeadNodding,1P
-0.502570547,0.358735014,-9.550655258,5.943944776,13.73649784,2.917846291,HeadNodding,1P
-0.637350993,0.402811052,-9.962672811,6.27099999,6.897213958,5.500676695,HeadNodding,1P
-0.643997608,0.446252877,-10.13037531,3.057662481,-4.649707537,3.964318466,HeadNodding,1P
-0.482734408,0.402650928,-9.853098931,-1.91038052,-14.95602468,-1.769778412,HeadNodding,1P
-0.354674255,0.302909626,-9.380628635,-5.188890416,-17.11270142,-6.393301039,HeadNodding,1P
-0.44838928,0.256601925,-9.130920275,-5.147394543,-10.31446713,-5.299019927,HeadNodding,1P
-0.731244766,0.326768534,-9.241901188,-3.221402301,-1.220528304,-0.148427942,HeadNodding,1P
-1.000900833,0.470695984,-9.481812571,-1.510461233,3.658312457,3.319538753,HeadNodding,1P
-1.058789314,0.580875763,-9.540253087,-0.192059153,5.59794598,2.152429683,HeadNodding,1P
-0.808473458,0.55890409,-9.332786036,1.938070452,11.44345855,-0.93997801,HeadNodding,1P
-0.28498303,0.379415922,-9.060745926,5.025236706,24.24773017,-1.598968211,HeadNodding,1P
0.326788895,0.128281792,-9.035658421,7.180901365,37.87929551,0.910151201,HeadNodding,1P
0.784721727,-0.036248054,-9.385015522,5.992674879,41.17039361,3.518916195,HeadNodding,1P
1.002225664,-0.009772874,-9.860431394,0.831016112,27.36526851,3.687573269,HeadNodding,1P
1.091756896,0.166930992,-10.02383857,-6.047056726,0.944618125,2.20878251,HeadNodding,1P
1.120603441,0.362252673,-9.715569062,-10.62072045,-23.9394546,1.275174849,HeadNodding,1P
0.970279094,0.479259184,-9.240888384,-10.07762398,-33.46638081,1.349362598,HeadNodding,1P
0.575563433,0.506169968,-8.993411171,-5.236467939,-24.52193082,1.218052769,HeadNodding,1P
0.153910304,0.475344546,-9.023663945,0.380342283,-5.282948459,0.218560894,HeadNodding,1P
0.003083549,0.41600345,-9.13250993,4.064798396,13.401865,-0.978602947,HeadNodding,1P
0.159896868,0.344618054,-9.251935561,5.752919095,24.92188909,-1.485633696,HeadNodding,1P
0.431548134,0.2727543,-9.480720194,6.208153614,26.7418331,-0.993282061,HeadNodding,1P
0.67825996,0.211180216,-9.7856149,4.840625158,18.42180592,0.555535001,HeadNodding,1P
0.87125011,0.171897331,-9.93044811,0.686120254,2.213450419,3.119547697,HeadNodding,1P
0.920681682,0.171921504,-9.772407654,-5.013092249,-15.98911844,5.89970382,HeadNodding,1P
0.665434107,0.229262229,-9.466559129,-8.903506788,-28.67368775,7.225762065,HeadNodding,1P
0.093068709,0.345495244,-9.284939043,-8.739532491,-31.26252426,5.984604798,HeadNodding,1P
-0.553666534,0.4938764,-9.303502698,-5.488317326,-24.65745368,2.913732141,HeadNodding,1P
-0.958479889,0.627192422,-9.347644791,-1.703790744,-12.16418952,-0.225817853,HeadNodding,1P
-0.974462461,0.690391308,-9.250193247,1.204019946,4.834712786,-2.321900783,HeadNodding,1P
-0.676691565,0.639739571,-9.104218226,3.301683518,24.68593298,-2.954659459,HeadNodding,1P
-0.246522374,0.488438403,-9.176038212,4.527266227,39.68811061,-1.635859753,HeadNodding,1P
0.16058232,0.330100453,-9.541106679,4.019846421,38.66143657,1.388794686,HeadNodding,1P
0.483937771,0.265125965,-9.900611197,1.36489188,18.90894067,4.04346476,HeadNodding,1P
0.728590454,0.299617327,-9.880005556,-2.135700265,-7.505437288,4.099768552,HeadNodding,1P
0.85718309,0.367088637,-9.481814094,-4.217126838,-23.4156347,2.05917084,HeadNodding,1P
0.773302432,0.436705862,-9.087894324,-3.785468176,-21.80062339,0.532237267,HeadNodding,1P
0.49460883,0.525428874,-8.985717161,-1.724582288,-8.842482292,0.486093467,HeadNodding,1P
0.256340244,0.605065691,-9.0740862,0.55419576,6.427862891,0.148702252,HeadNodding,1P
0.307198256,0.58539102,-9.120726994,2.537729835,20.02378717,-1.481131175,HeadNodding,1P
0.651784256,0.431984957,-9.114565297,4.210108227,30.04400354,-2.048069141,HeadNodding,1P
1.081220556,0.250929026,-9.208326035,5.096650217,32.70423775,1.171327556,HeadNodding,1P
1.387848555,0.195543768,-9.443489616,4.331811933,25.36842494,6.523626522,HeadNodding,1P
1.488543018,0.295623212,-9.682273164,1.337561438,10.00721195,8.78563235,HeadNodding,1P
1.410770263,0.433204928,-9.755465934,-3.517940379,-8.551444556,5.406370044,HeadNodding,1P
1.217086657,0.498311274,-9.605480368,-8.445744659,-24.95711419,-0.096418988,HeadNodding,1P
0.923450987,0.51291604,-9.336083157,-10.89987901,-33.89041505,-2.400088616,HeadNodding,1P
0.506416828,0.566991357,-9.136222398,-9.543917099,-32.45838459,-0.57408104,HeadNodding,1P
0.027791984,0.675809918,-9.08923113,-5.315700583,-22.47373109,1.75135055,HeadNodding,1P
-0.316770179,0.756496305,-9.095762232,-0.271160024,-7.306713054,1.512752865,HeadNodding,1P
-0.366242955,0.736098549,-9.077622092,3.850239991,11.8961758,-0.486375339,HeadNodding,1P
-0.15127657,0.634417671,-9.15743214,5.734390657,32.33024959,-1.396766899,HeadNodding,1P
0.202103976,0.530807487,-9.462297786,4.557937527,43.98146413,0.125416138,HeadNodding,1P
0.625148393,0.484581709,-9.830674532,0.816323583,35.34608925,2.76987635,HeadNodding,1P
1.041008513,0.504059345,-9.933026519,-3.590671465,7.04488451,4.211092743,HeadNodding,1P
1.243776189,0.566959874,-9.674421146,-6.568148417,-24.54642493,3.389575315,HeadNodding,1P
1.015796268,0.646355632,-9.306934263,-6.954420384,-40.50180108,1.372643966,HeadNodding,1P
0.387241682,0.721291684,-9.124324771,-4.918105522,-35.24391563,0.074915825,HeadNodding,1P
-0.303381139,0.774670195,-9.160518359,-1.806212388,-18.04457732,0.181457881,HeadNodding,1P
-0.665185462,0.789345064,-9.231979222,0.745064112,-0.441934694,0.747083746,HeadNodding,1P
-0.573909752,0.757190876,-9.216494033,1.968645382,14.22542726,0.902433149,HeadNodding,1P
-0.214406659,0.695384372,-9.208222803,2.199064687,27.66910539,1.144577313,HeadNodding,1P
0.165846008,0.640445963,-9.36766611,2.029358495,37.06683113,2.336844894,HeadNodding,1P
0.468237342,0.615281731,-9.673602633,1.429058109,34.04752572,3.966396561,HeadNodding,1P
0.706254303,0.611666232,-9.902966613,-0.157137058,14.64890525,4.380490518,HeadNodding,1P
0.851366969,0.614993264,-9.870561958,-2.691904819,-12.64243859,2.921180723,HeadNodding,1P
0.791335901,0.632269784,-9.632328949,-4.920711887,-32.10326278,0.999107224,HeadNodding,1P
0.466871253,0.67871314,-9.393917875,-5.472611495,-34.28948704,0.411731468,HeadNodding,1P
0.031021143,0.741975136,-9.248842813,-4.055406512,-22.16497494,1.039242606,HeadNodding,1P
-0.225197037,0.773307037,-9.126453191,-0.854367829,-4.009494784,1.017338658,HeadNodding,1P
-0.176694971,0.723096162,-9.032217873,3.999840873,14.87093509,-0.73843297,HeadNodding,1P
0.008006997,0.593418396,-9.163951151,8.877226691,30.39451551,-2.848984724,HeadNodding,1P
0.146174284,0.453532631,-9.617022609,9.974218015,34.77216771,-2.959969594,HeadNodding,1P
0.305099914,0.389400182,-10.08335541,4.725959296,20.98548421,-0.838282751,HeadNodding,1P
0.593934201,0.43446118,-10.09875525,-4.290197353,-6.622799407,0.995575294,HeadNodding,1P
0.808200631,0.556608707,-9.614538812,-10.87056885,-31.29033858,0.462963696,HeadNodding,1P
0.567947003,0.703942535,-9.105001322,-11.02136716,-37.64570684,-1.146402803,HeadNodding,1P
-0.161124003,0.841427936,-9.006372778,-6.275994862,-25.70692176,-0.923558905,HeadNodding,1P
-0.898830844,0.93936505,-9.215965719,-1.168098544,-7.976853723,1.449933514,HeadNodding,1P
-1.103729257,0.959043418,-9.312597989,1.480525882,5.958120366,3.219356037,HeadNodding,1P
-0.71582637,0.890668096,-9.176846974,2.222518183,16.37975759,2.502776694,HeadNodding,1P
-0.179934015,0.794714986,-9.148768776,2.782216809,24.81526505,0.691203996,HeadNodding,1P
0.051936992,0.754358942,-9.50354233,3.361029582,26.01104935,0.063055898,HeadNodding,1P
-0.040427901,0.785197495,-9.989360124,2.485030463,13.8205544,0.744151584,HeadNodding,1P
-0.171495814,0.838771391,-10.10381712,-0.742003016,-7.934806741,1.337360261,HeadNodding,1P
-0.214016721,0.885574028,-9.730275776,-4.708831261,-25.83160544,1.301032032,HeadNodding,1P
-0.320476381,0.936145858,-9.245131801,-6.346139591,-28.8140208,1.146958169,HeadNodding,1P
-0.578231397,0.986399923,-9.007638636,-4.337061235,-17.22310331,1.059457881,HeadNodding,1P
-0.80741339,1.006305024,-9.012707357,-0.430653778,0.556224619,0.965801584,HeadNodding,1P
-0.830534953,0.996574155,-9.123819082,2.82490135,16.73777066,1.54525384,HeadNodding,1P
-0.733126568,1.004039999,-9.368936508,4.508169886,26.530794,3.348050553,HeadNodding,1P
-0.675251914,1.048396897,-9.777110655,4.827697617,25.63281127,4.895538076,HeadNodding,1P
-0.614899543,1.07245469,-10.10297893,3.600771426,12.12867606,3.616674286,HeadNodding,1P
-0.445713442,1.013910608,-10.02670696,0.738023733,-8.056834848,-0.613970797,HeadNodding,1P
-0.293503333,0.904156109,-9.59821169,-2.385444179,-22.72884936,-4.451050881,HeadNodding,1P
-0.421045534,0.84309455,-9.223372858,-3.696218272,-23.89514279,-4.628925472,HeadNodding,1P
-0.848947049,0.880277108,-9.172752437,-2.653066493,-14.69373904,-1.598434651,HeadNodding,1P
-1.253209814,0.955181154,-9.297932223,-0.492747845,-3.43782214,1.216067131,HeadNodding,1P
-1.284249857,0.957103782,-9.307750628,1.777643329,6.749752478,1.315826001,HeadNodding,1P
-0.916038256,0.838380168,-9.189446656,4.195742506,18.05160491,-0.253033561,HeadNodding,1P
-0.453870542,0.674035791,-9.219615,6.209398898,28.79445392,-0.300635101,HeadNodding,1P
-0.208522787,0.595727589,-9.560200255,5.742263668,30.1686498,2.342365045,HeadNodding,1P
-0.186135124,0.656070675,-9.961880818,1.297047717,15.58253271,4.660750564,HeadNodding,1P
-0.169042684,0.78541391,-9.996393689,-5.41923004,-8.836116133,2.87149657,HeadNodding,1P
-0.101899742,0.892205136,-9.579426997,-10.18394305,-26.9103777,-2.069290637,HeadNodding,1P
-0.216240528,0.96421867,-9.111094126,-9.999514164,-27.12341242,-4.600327383,HeadNodding,1P
-0.654159638,1.046690927,-9.009337744,-5.808399533,-13.30457243,-1.263378817,HeadNodding,1P
-1.14874821,1.15147228,-9.22720148,-1.203749897,1.352471642,4.676101597,HeadNodding,1P
-1.27799545,1.225219842,-9.376819214,1.23789702,9.779483307,7.095048152,HeadNodding,1P
-0.94684447,1.211931171,-9.267341296,1.787133934,16.60322088,4.273692671,HeadNodding,1P
-0.453606466,1.125167662,-9.144641509,2.045223321,27.30068973,0.305229061,HeadNodding,1P
-0.108652496,1.037969775,-9.339623866,2.674671521,36.32404656,-0.368572467,HeadNodding,1P
0.085242671,1.003207629,-9.78697821,3.00748411,31.13188889,2.077393611,HeadNodding,1P
0.314246466,1.001997679,-10.04808988,2.224054794,8.141541669,4.042132595,HeadNodding,1P
0.578762289,0.982194395,-9.836733868,0.344828137,-19.83046875,3.397385855,HeadNodding,1P
0.596119378,0.936093114,-9.366908495,-1.823752028,-35.02225934,1.632566891,HeadNodding,1P
0.165766476,0.913544329,-9.064648648,-3.335630262,-31.0969028,1.18936422,HeadNodding,1P
-0.480257119,0.949935599,-9.06070995,-3.475673012,-14.99162806,2.257531637,HeadNodding,1P
-0.845343086,1.005742189,-9.147937054,-1.765551235,4.203852046,3.085107072,HeadNodding,1P
-0.669515237,1.002392535,-9.17217425,1.590366395,21.72925512,2.513600796,HeadNodding,1P
-0.152864779,0.912719494,-9.236414834,4.888005463,33.05846003,1.155966472,HeadNodding,1P
0.312620009,0.795196197,-9.46388478,5.448969277,31.43848166,0.394240651,HeadNodding,1P
0.513254296,0.733823164,-9.733937833,2.087319178,14.60665523,0.980693856,HeadNodding,1P
0.477936386,0.761125946,-9.794207114,-3.113235563,-9.08031686,2.60694026,HeadNodding,1P
0.292493234,0.850589909,-9.582764148,-6.335020696,-25.72522535,4.258624112,HeadNodding,1P
-0.011765577,0.959375725,-9.310840753,-5.391369146,-27.27520624,4.688018922,HeadNodding,1P
-0.375886902,1.045503589,-9.198564802,-1.292188162,-16.37898701,3.081249687,HeadNodding,1P
-0.628175017,1.059643454,-9.222282012,2.867791154,-0.983278712,0.141729377,HeadNodding,1P
-0.581221774,0.97118644,-9.204367837,3.872624568,12.83682381,-1.689401392,HeadNodding,1P
-0.226132908,0.817477618,-9.102961489,0.313094019,21.67492276,-0.388225092,HeadNodding,1P
0.218368002,0.696083613,-9.082794618,-5.814674792,21.92864609,2.893018807,HeadNodding,1P
0.488107293,0.684373984,-9.25755539,-10.02362333,11.05662584,4.478442931,HeadNodding,1P
0.485657019,0.773898295,-9.481869192,-9.454044413,-7.171419425,2.369190636,HeadNodding,1P
0.277604375,0.895176449,-9.526370239,-5.64378913,-22.19817022,-1.255201461,HeadNodding,1P
-0.055520886,0.995082366,-9.390347139,-2.2453376,-25.06085273,-2.660097005,HeadNodding,1P
-0.440351478,1.067885678,-9.267409719,-1.034452385,-16.54662683,-0.758921032,HeadNodding,1P
-0.711524297,1.114830789,-9.228936977,-0.933969326,-4.09483944,2.283433792,HeadNodding,1P
-0.685889692,1.108685108,-9.163706119,0.268367762,8.177614781,3.831592843,HeadNodding,1P
-0.399523813,1.025141779,-9.078846629,3.743918655,21.31095639,3.051089483,HeadNodding,1P
-0.112182916,0.895258445,-9.211546051,7.95358561,32.88541877,0.829633683,HeadNodding,1P
0.009405689,0.79183904,-9.664507552,9.087215471,33.26563192,-1.504498793,HeadNodding,1P
0.068681542,0.760096512,-10.1088988,4.712020125,15.78254346,-3.168348055,HeadNodding,1P
0.197702426,0.788713819,-10.10435458,-2.759152874,-11.91668688,-4.017195694,HeadNodding,1P
0.278778148,0.846918007,-9.651269241,-7.752244005,-32.2813334,-4.001635415,HeadNodding,1P
0.062736691,0.916682448,-9.194399029,-7.20223941,-34.51249753,-2.964434364,HeadNodding,1P
-0.487741013,0.986556772,-9.078898732,-3.314676344,-23.47136372,-1.243222441,HeadNodding,1P
-1.092833187,1.041732034,-9.200129822,-0.151902863,-10.62576668,0.123957155,HeadNodding,1P
-1.400176318,1.067547991,-9.2553898,1.13017766,0.239132461,0.628304603,HeadNodding,1P
-1.285009276,1.053282555,-9.194651047,2.293912915,13.53600469,1.287463822,HeadNodding,1P
-0.909523511,0.993556112,-9.265571404,4.096343158,28.85621015,3.202912009,HeadNodding,1P
-0.54056816,0.892801661,-9.619386304,4.623086407,34.66805921,5.305259463,HeadNodding,1P
-0.35010155,0.770803551,-10.02959849,2.355679128,20.76035977,5.06704793,HeadNodding,1P
-0.364288619,0.662882164,-10.12598446,-1.019721269,-6.234364751,1.861916891,HeadNodding,1P
-0.528393996,0.608643414,-9.839657202,-2.698306253,-26.89135769,-1.696060009,HeadNodding,1P
-0.764192341,0.629167007,-9.45738757,-2.465904571,-28.70911951,-2.568886933,HeadNodding,1P
-0.966417481,0.705059266,-9.240009515,-2.209422235,-15.87009084,-0.648721261,HeadNodding,1P
-1.010381319,0.779618798,-9.16954287,-2.39022705,0.922569358,1.618079544,HeadNodding,1P
-0.847572227,0.803565295,-9.145390529,-1.392720643,16.49376575,2.535121745,HeadNodding,1P
-0.586526237,0.788458461,-9.240846807,1.375601465,29.19739837,2.796208896,HeadNodding,1P
-0.388879872,0.794474019,-9.5702376,3.778160444,33.64267268,3.405579917,HeadNodding,1P
-0.281176636,0.846228144,-9.987543304,3.278036708,23.43689694,3.333002275,HeadNodding,1P
-0.178278295,0.890589469,-10.14985553,-0.147001244,0.863894185,0.897037414,HeadNodding,1P
-0.103150941,0.873617572,-9.916463838,-4.105553976,-21.41738515,-3.010058484,HeadNodding,1P
-0.21969184,0.829566223,-9.507836407,-6.063578189,-30.59415063,-5.218590419,HeadNodding,1P
-0.556941202,0.837626003,-9.201639204,-5.114855303,-23.82769937,-4.143688338,HeadNodding,1P
-0.854168589,0.903806665,-9.049819373,-2.215234331,-7.286296474,-1.207945945,HeadNodding,1P
-0.843827717,0.951446584,-9.019192287,0.674358936,11.43919626,2.197862421,HeadNodding,1P
-0.586889423,0.93581812,-9.209023285,1.887803119,26.16585662,6.419468058,HeadNodding,1P
-0.347896405,0.898707678,-9.671607812,1.120411843,30.25626777,10.59382361,HeadNodding,1P
-0.23319386,0.880915476,-10.13042873,-0.698565556,19.05923293,10.89001608,HeadNodding,1P
-0.168482949,0.85012624,-10.18207019,-2.781629163,-3.587504134,4.901263035,HeadNodding,1P
-0.162883872,0.772688755,-9.780671231,-5.137203538,-24.97603524,-3.57344527,HeadNodding,1P
-0.346160465,0.709418539,-9.29386518,-7.326245108,-32.53144794,-7.420665626,HeadNodding,1P
-0.718622599,0.76343074,-9.058144039,-7.566255037,-22.98919881,-3.963562962,HeadNodding,1P
-1.036735763,0.931236033,-9.060593652,-4.241691412,-2.434558899,2.341406193,HeadNodding,1P
-1.021573364,1.061927692,-9.105932722,1.891324804,20.53552097,5.344791324,HeadNodding,1P
-0.615067336,1.000981836,-9.139087002,7.563745467,39.09481292,3.82633245,HeadNodding,1P
0.009804675,0.763127261,-9.266158241,9.286240926,47.40312243,1.814792041,HeadNodding,1P
0.63878414,0.531680314,-9.508303949,6.099487411,40.93836239,2.962826622,HeadNodding,1P
1.150999212,0.477276353,-9.691999861,0.190409481,20.36703115,5.967541091,HeadNodding,1P
1.471733827,0.600929236,-9.640935077,-5.12967035,-6.337392578,6.474978278,HeadNodding,1P
1.485501605,0.771565701,-9.386497212,-7.704291831,-27.36287858,2.854276985,HeadNodding,1P
1.127789404,0.883143396,-9.110016209,-7.171088527,-33.55393049,-1.65872005,HeadNodding,1P
0.578330866,0.933385736,-8.936248775,-4.531299205,-22.96843726,-2.960538021,HeadNodding,1P
0.195031457,0.972816669,-8.889936885,-1.43054987,-1.277105619,-0.669879982,HeadNodding,1P
0.159971228,1.031419126,-9.011824548,0.776465975,20.37564209,2.153847703,HeadNodding,1P
0.330907287,1.097554174,-9.330893183,1.552628528,29.2845063,2.76567451,HeadNodding,1P
0.501479653,1.136366285,-9.68107723,0.934989203,18.69244529,1.149991302,HeadNodding,1P
0.608942486,1.124449311,-9.757396515,-0.665666808,-4.832535404,-0.804251013,HeadNodding,1P
0.61247713,1.079491752,-9.482118258,-2.378793907,-24.55998588,-1.524858594,HeadNodding,1P
0.402366147,1.050795136,-9.150773009,-3.319452424,-28.30258469,-0.930407506,HeadNodding,1P
-0.022282577,1.070264314,-9.071380891,-3.274822533,-18.73624109,0.113449031,HeadNodding,1P
-0.434864294,1.116564385,-9.196333604,-2.356753329,-6.361346803,0.953314044,HeadNodding,1P
-0.573846433,1.132655067,-9.268667771,-0.202646772,4.643420039,1.555675275,HeadNodding,1P
-0.381753064,1.076608665,-9.220032823,3.30522771,17.45664536,1.984053282,HeadNodding,1P
0.007744947,0.960315426,-9.23021775,6.427165352,30.58230821,1.967742444,HeadNodding,1P
0.426088294,0.846970859,-9.422023553,6.181270607,33.19726684,1.289686474,HeadNodding,1P
0.731629308,0.802761657,-9.666152745,1.509411968,17.09146908,0.403035188,HeadNodding,1P
0.782960072,0.842035301,-9.737664381,-4.871257736,-10.73332048,0.28271736,HeadNodding,1P
0.485010056,0.929121863,-9.577478076,-8.490126404,-32.11466688,1.441618025,HeadNodding,1P
-0.062585253,1.028429431,-9.328704459,-6.930353141,-33.83904721,3.070944323,HeadNodding,1P
-0.516901802,1.122438338,-9.143602224,-1.888986085,-17.60401294,3.564857211,HeadNodding,1P
-0.544778581,1.182420618,-9.046750459,2.123163634,4.527405435,2.477421508,HeadNodding,1P
-0.182585312,1.164441485,-9.017279281,1.704819735,20.47110287,1.592194025,HeadNodding,1P
0.189561168,1.054208346,-9.089460656,-2.195340594,23.52595831,2.889316984,HeadNodding,1P
0.294220015,0.896068091,-9.264840793,-5.626569788,13.07555636,5.419119572,HeadNodding,1P
0.204943925,0.762809559,-9.413405139,-6.385841459,-5.20524087,5.725148821,HeadNodding,1P
0.075054989,0.704897976,-9.403270516,-5.747308208,-21.24500285,2.174771963,HeadNodding,1P
-0.143392551,0.730415716,-9.282155159,-5.051331868,-26.505778,-2.501563969,HeadNodding,1P
-0.52423828,0.808525968,-9.199621268,-3.215840721,-19.2049841,-4.351795373,HeadNodding,1P
-0.874661447,0.875898341,-9.184961989,0.546834996,-3.648314615,-2.727296205,HeadNodding,1P
-0.868004541,0.872154157,-9.14895605,3.373244461,13.74569969,0.090220626,HeadNodding,1P
-0.463756846,0.805530361,-9.10345708,0.994041207,26.19768737,2.601367175,HeadNodding,1P
-0.003633459,0.759137887,-9.201792935,-6.327494211,27.24360346,4.832541687,HeadNodding,1P
0.182674713,0.792805434,-9.474445991,-12.68850461,14.64713472,5.996672921,HeadNodding,1P
0.117715253,0.868299926,-9.67854248,-13.17213486,-5.43010553,4.623656456,HeadNodding,1P
0.00582842,0.918948084,-9.576327469,-9.479430903,-21.19741622,1.543597979,HeadNodding,1P
-0.121252902,0.955491863,-9.270059929,-6.629439205,-24.29441667,-0.051232071,HeadNodding,1P
-0.368141716,1.036942841,-9.067171471,-5.986365657,-15.67348187,1.370587124,HeadNodding,1P
-0.671812924,1.160277236,-9.07744346,-4.364338183,-1.846750088,3.611081511,HeadNodding,1P
-0.799283745,1.244909223,-9.168942818,0.721730039,12.59874141,3.765516343,HeadNodding,1P
-0.652591568,1.224102289,-9.282930915,7.060314952,25.3089018,1.845779747,HeadNodding,1P
-0.356337775,1.112496154,-9.509687022,9.503907399,30.6944263,0.32502662,HeadNodding,1P
-0.038963231,0.986611958,-9.80406293,5.263205154,21.46517764,0.868557462,HeadNodding,1P
0.244817674,0.92368869,-9.904901606,-3.069433145,-1.040980171,2.54074173,HeadNodding,1P
0.359830325,0.95864874,-9.675928619,-9.968427259,-23.16312509,3.284828153,HeadNodding,1P
0.128021933,1.079882666,-9.320065265,-11.84568689,-30.42025195,2.388851263,HeadNodding,1P
-0.373104572,1.242080866,-9.105132953,-9.033709833,-20.56464941,0.799543458,HeadNodding,1P
-0.75964679,1.373033732,-9.055346875,-3.858741558,-2.423327341,-0.354120862,HeadNodding,1P
-0.741897916,1.400423922,-9.079075471,1.711861494,14.33484407,-0.294264692,HeadNodding,1P
-0.456123832,1.314959167,-9.220978547,6.198100619,23.84118749,1.649393328,HeadNodding,1P
-0.261813291,1.192172916,-9.54506166,7.875922428,22.55741163,4.861746391,HeadNodding,1P
-0.29720004,1.112245967,-9.872972614,5.656640721,10.4251083,6.488309512,HeadNodding,1P
-0.39759057,1.080081014,-9.91187929,0.748636768,-6.561463813,4.026290179,HeadNodding,1P
-0.420019123,1.063320685,-9.637994408,-3.821662456,-19.60543937,-1.089205031,HeadNodding,1P
-0.448803538,1.068689097,-9.327313586,-5.773003733,-23.68312868,-4.513542443,HeadNodding,1P
-0.597611138,1.120246216,-9.178480137,-4.929073093,-18.85926792,-3.774360329,HeadNodding,1P
-0.764261558,1.188538529,-9.118974962,-2.110373057,-6.483488588,-0.542873903,HeadNodding,1P
-0.751890336,1.202221393,-9.064920129,1.884885118,11.33379872,1.86849976,HeadNodding,1P
-0.567063251,1.128844488,-9.15755664,5.541440583,27.10865481,1.951695187,HeadNodding,1P
-0.409481136,1.011180997,-9.531496627,6.333494962,28.38645629,0.616046536,HeadNodding,1P
-0.386207126,0.924127389,-9.964332408,2.876746872,9.387418381,-0.651418777,HeadNodding,1P
-0.445272448,0.915763442,-10.04192255,-2.87639887,-18.84999305,-1.263408957,HeadNodding,1P
-0.599900573,0.988437095,-9.684394293,-6.952175552,-36.36583907,-1.283139836,HeadNodding,1P
-0.963945075,1.110575331,-9.248538637,-7.125977183,-33.34727282,-0.758067035,HeadNodding,1P
-1.472470571,1.227405856,-9.052086259,-4.538422503,-16.73148546,0.092541888,HeadNodding,1P
-1.78773711,1.277158896,-9.048524996,-1.428493162,1.810673165,0.713228897,HeadNodding,1P
-1.6482054,1.234925107,-9.077658653,1.481424012,17.33100422,1.002006171,HeadNodding,1P
-1.203032029,1.15020314,-9.195796209,4.286688124,28.48912124,1.763525257,HeadNodding,1P
-0.845613191,1.110186045,-9.536532981,5.619702138,30.29314685,3.443725335,HeadNodding,1P
-0.756144463,1.144479217,-9.952352817,3.374048814,17.67288387,4.72658377,HeadNodding,1P
-0.776887189,1.191740318,-10.06205041,-1.790188454,-4.621690667,3.674990118,HeadNodding,1P
-0.761305614,1.186858719,-9.721211682,-5.758862754,-21.98427498,0.531995019,HeadNodding,1P
-0.82119717,1.147988851,-9.245053331,-5.24653371,-22.92830131,-1.909973963,HeadNodding,1P
-1.067374734,1.134655493,-9.025264683,-1.496296764,-9.615849706,-1.487268048,HeadNodding,1P
-1.286663429,1.148612906,-9.085514711,1.720928021,7.064112783,0.868016695,HeadNodding,1P
-1.131846529,1.129799591,-9.197493694,2.70059165,19.88468998,2.774931638,HeadNodding,1P
-0.581298952,1.044249821,-9.29081377,2.664190645,28.02849246,3.474557157,HeadNodding,1P
0.008052482,0.937245654,-9.479465943,2.664091888,29.6736184,3.857355767,HeadNodding,1P
0.310828435,0.888060025,-9.728561834,1.767501056,19.84150076,4.055321762,HeadNodding,1P
0.30695031,0.926028283,-9.789803386,-1.015820577,-1.014885483,2.916663307,HeadNodding,1P
0.128846432,1.006590188,-9.545605739,-4.405944482,-21.40073225,0.322184418,HeadNodding,1P
-0.131011004,1.067993238,-9.191561987,-5.73491722,-27.19692724,-1.611029636,HeadNodding,1P
-0.365836186,1.089825278,-8.976346316,-3.715781563,-14.54361592,-0.930655885,HeadNodding,1P
-0.426886823,1.088519539,-8.956535454,0.560955716,8.425783821,1.337326105,HeadNodding,1P
-0.291617614,1.078444894,-9.103586366,4.862659445,29.72596079,2.194761022,HeadNodding,1P
-0.101443558,1.05366331,-9.426354728,7.081042962,39.67848933,0.435818719,HeadNodding,1P
0.070216472,1.000443518,-9.825461133,5.950906035,33.24670289,-1.780141231,HeadNodding,1P
0.320743146,0.92188781,-10.01544791,1.949923174,13.32010288,-1.618541201,HeadNodding,1P
0.678059144,0.850079524,-9.809180707,-2.505139513,-8.828002263,0.96848196,HeadNodding,1P
0.920941457,0.825915392,-9.3887878,-4.749725924,-21.47719083,3.356225525,HeadNodding,1P
0.814079374,0.859014563,-9.101905945,-3.992150137,-21.43187579,3.466347702,HeadNodding,1P
0.448773069,0.909063821,-9.043350452,-1.358183564,-12.57788069,1.802095768,HeadNodding,1P
0.183772003,0.912120232,-9.035379348,1.810978173,2.168496878,0.23996094,HeadNodding,1P
0.264811662,0.831475833,-8.99614571,4.724601836,21.45184333,-0.058302443,HeadNodding,1P
0.635351666,0.688806154,-9.082542013,6.349456046,37.9622413,0.894558446,HeadNodding,1P
1.106351874,0.546506934,-9.380278026,5.350472858,38.21802979,2.463275475,HeadNodding,1P
1.54368346,0.459011554,-9.65477365,1.626594703,15.92420147,3.686957649,HeadNodding,1P
1.82139402,0.444587074,-9.597624167,-2.863066565,-17.00862696,3.85819784,HeadNodding,1P
1.751370595,0.496506788,-9.237894836,-5.572810085,-38.66023912,3.445329331,HeadNodding,1P
1.255837194,0.596760675,-8.91503961,-5.452591019,-37.05244092,3.58342212,HeadNodding,1P
0.573764581,0.712445632,-8.858370556,-3.239756663,-18.2946898,4.057251947,HeadNodding,1P
0.102649203,0.803386823,-8.992687582,-0.14534997,4.395306961,2.837463585,HeadNodding,1P
0.018627786,0.844379282,-9.180035112,2.862755325,22.67580176,-1.313046902,HeadNodding,1P
0.206793914,0.830357615,-9.40879513,4.4940549,31.90314944,-6.277512753,HeadNodding,1P
0.523384975,0.774182759,-9.643189872,3.20370278,26.90452332,-7.887330126,HeadNodding,1P
0.886716875,0.718592012,-9.718550837,-1.15883693,7.076610486,-4.263866558,HeadNodding,1P
1.112444019,0.722977598,-9.549301157,-6.311568805,-17.53739147,1.840198559,HeadNodding,1P
0.964579581,0.806140429,-9.278700323,-9.013492,-32.04546145,5.803124621,HeadNodding,1P
0.503299182,0.918760672,-9.079015179,-7.527019591,-28.5929413,5.729463736,HeadNodding,1P
0.148896809,0.991070011,-8.957487182,-2.558012184,-10.29552638,3.335392041,HeadNodding,1P
0.204301145,0.989330886,-8.911027271,3.422425214,13.24033318,0.954645821,HeadNodding,1P
0.475094661,0.920426545,-9.087484013,7.312575278,30.35751978,-0.551760645,HeadNodding,1P
0.5778261,0.815230665,-9.544359063,6.890686513,31.28415424,-0.980859789,HeadNodding,1P
0.47440342,0.725921991,-9.977312202,2.38460662,14.55197176,-0.052535411,HeadNodding,1P
0.415828569,0.712566447,-9.987992045,-3.588110746,-10.14345416,1.6179531,HeadNodding,1P
0.450136687,0.803501962,-9.580649687,-8.031223384,-28.8059212,2.399370267,HeadNodding,1P
0.326762809,0.967794631,-9.142740377,-9.391457361,-33.1476056,1.546767095,HeadNodding,1P
-0.073353959,1.130305269,-8.960575135,-7.735048787,-23.67283241,0.235762035,HeadNodding,1P
-0.498904713,1.215438794,-8.988188311,-3.988373969,-6.087183373,0.11830064,HeadNodding,1P
-0.651228953,1.196920217,-9.101070546,0.601051664,12.15309838,1.654827166,HeadNodding,1P
-0.563086125,1.125041477,-9.327122929,4.450560434,22.8551683,3.881867666,HeadNodding,1P
-0.499959321,1.087414694,-9.690139539,5.770184236,19.43352435,4.841385752,HeadNodding,1P
-0.607128561,1.120224638,-9.992274105,3.680299707,2.228373799,2.665707953,HeadNodding,1P
-0.832754867,1.176880486,-9.973972704,-0.473967837,-18.91925159,-2.250748989,HeadNodding,1P
-1.124731172,1.200412906,-9.654524868,-3.634033188,-30.69872549,-6.421688502,HeadNodding,1P
-1.4795841,1.192976129,-9.318062681,-3.560021647,-26.67278038,-6.284337191,HeadNodding,1P
-1.769192353,1.184503382,-9.149705168,-0.768661754,-10.99799589,-2.14603923,HeadNodding,1P
-1.737608439,1.166533637,-9.08053191,2.313022488,7.624166434,2.14423948,HeadNodding,1P
-1.321576126,1.108588729,-9.052897671,3.801795192,22.88489101,3.432216728,HeadNodding,1P
-0.844677155,1.030268365,-9.216836161,3.597974054,31.08703444,2.066691332,HeadNodding,1P
-0.687312327,0.998521022,-9.667326745,2.545559629,28.82545207,0.589573685,HeadNodding,1P
-0.819400187,1.038479225,-10.12462977,1.052664758,15.23929746,0.750563096,HeadNodding,1P
-0.888173839,1.098618674,-10.15598564,-1.087810713,-3.872196402,2.11990608,HeadNodding,1P
-0.749892633,1.128417452,-9.718796262,-3.570627716,-18.08557374,3.047258399,HeadNodding,1P
-0.644316764,1.141607202,-9.243195382,-4.833982212,-20.32202641,2.535514233,HeadNodding,1P
-0.775009953,1.167447002,-9.105315006,-3.20890097,-11.52700483,1.157148598,HeadNodding,1P
-0.957261703,1.17934903,-9.208691527,0.858640006,2.878702315,0.382168662,HeadNodding,1P
-0.845409818,1.123238811,-9.210809273,4.107104228,18.20813032,1.207319793,HeadNodding,1P
-0.394992534,1.007058237,-9.040741876,3.054693922,30.08085738,3.152007149,HeadNodding,1P
0.081489295,0.909221459,-8.992251105,-1.956957399,32.14437465,4.280691434,HeadNodding,1P
0.315021408,0.874855405,-9.269454688,-6.468203035,19.58464906,2.795690964,HeadNodding,1P
0.347589958,0.853023164,-9.635312547,-6.992032159,-3.927375478,-0.663973842,HeadNodding,1P
0.30080092,0.794045138,-9.699145035,-4.948152175,-25.73695353,-2.9705526,HeadNodding,1P
0.094504845,0.763160567,-9.43000783,-3.816927114,-33.33295278,-1.851741712,HeadNodding,1P
